submission_id,actual_outcome,age,comments,correctResponse,education,effect_valence,experiment_duration,experiment_end_time,experiment_start_time,gender,languages,mechanism,prolific_pid,prolific_session_id,prolific_study_id,response,responseTime,trialNr,trialType
1586,red,33,,Sound A,Higher degree,neutral,198728,1755774624953,1755774426225,male,English,conjunctive,5ee5defbfe74a3000d106f51,68a6fdd4ff818fbca692f899,68a6ee9f7d592818f90008e8,Sound A,31000,1,comprehension
1586,red,33,,Sound B,Higher degree,neutral,198728,1755774624953,1755774426225,male,English,conjunctive,5ee5defbfe74a3000d106f51,68a6fdd4ff818fbca692f899,68a6ee9f7d592818f90008e8,Sound B,6034,2,comprehension
1586,red,33,,Sound B,Higher degree,neutral,198728,1755774624953,1755774426225,male,English,conjunctive,5ee5defbfe74a3000d106f51,68a6fdd4ff818fbca692f899,68a6ee9f7d592818f90008e8,Sound B,2816,3,comprehension
1586,red,33,,Sound B,Higher degree,neutral,198728,1755774624953,1755774426225,male,English,conjunctive,5ee5defbfe74a3000d106f51,68a6fdd4ff818fbca692f899,68a6ee9f7d592818f90008e8,Sound B,1868,4,comprehension
1586,red,33,,only the islanders know,Higher degree,neutral,198728,1755774624953,1755774426225,male,English,conjunctive,5ee5defbfe74a3000d106f51,68a6fdd4ff818fbca692f899,68a6ee9f7d592818f90008e8,90% for blue marbles and 10% for red marbles,27716,1,comprehension-2
1586,red,33,,FALSE,Higher degree,neutral,198728,1755774624953,1755774426225,male,English,conjunctive,5ee5defbfe74a3000d106f51,68a6fdd4ff818fbca692f899,68a6ee9f7d592818f90008e8,FALSE,20667,2,comprehension-2
1586,red,33,,NA,Higher degree,neutral,198728,1755774624953,1755774426225,male,English,conjunctive,5ee5defbfe74a3000d106f51,68a6fdd4ff818fbca692f899,68a6ee9f7d592818f90008e8,2,14766,1,critical
1587,red,24,,Sound A,Higher degree,unpleasant,130003,1755774699280,1755774569277,female,English,disjunctive,66c0bcab0a19a0e7d82c2b80,68a6fe5f6114959f17d05f1d,68a6ee9f7d592818f90008e8,Sound A,5315,1,comprehension
1587,red,24,,Sound A,Higher degree,unpleasant,130003,1755774699280,1755774569277,female,English,disjunctive,66c0bcab0a19a0e7d82c2b80,68a6fe5f6114959f17d05f1d,68a6ee9f7d592818f90008e8,Sound A,21541,2,comprehension
1587,red,24,,Sound A,Higher degree,unpleasant,130003,1755774699280,1755774569277,female,English,disjunctive,66c0bcab0a19a0e7d82c2b80,68a6fe5f6114959f17d05f1d,68a6ee9f7d592818f90008e8,Sound A,3348,3,comprehension
1587,red,24,,Sound B,Higher degree,unpleasant,130003,1755774699280,1755774569277,female,English,disjunctive,66c0bcab0a19a0e7d82c2b80,68a6fe5f6114959f17d05f1d,68a6ee9f7d592818f90008e8,Sound B,1949,4,comprehension
1587,red,24,,only the islanders know,Higher degree,unpleasant,130003,1755774699280,1755774569277,female,English,disjunctive,66c0bcab0a19a0e7d82c2b80,68a6fe5f6114959f17d05f1d,68a6ee9f7d592818f90008e8,only the islanders know,7548,1,comprehension-2
1587,red,24,,FALSE,Higher degree,unpleasant,130003,1755774699280,1755774569277,female,English,disjunctive,66c0bcab0a19a0e7d82c2b80,68a6fe5f6114959f17d05f1d,68a6ee9f7d592818f90008e8,FALSE,2427,2,comprehension-2
1587,red,24,,NA,Higher degree,unpleasant,130003,1755774699280,1755774569277,female,English,disjunctive,66c0bcab0a19a0e7d82c2b80,68a6fe5f6114959f17d05f1d,68a6ee9f7d592818f90008e8,2,31367,1,critical
1593,blue,49,,Sound A,Graduated High-school,pleasant,175631,1755775242578,1755775066947,male,english,disjunctive,63ea4a7fa7d709c8e7887a93,68a7004f49b634456a0d7ab1,68a6ee9f7d592818f90008e8,Sound A,21748,1,comprehension
1593,blue,49,,Sound A,Graduated High-school,pleasant,175631,1755775242578,1755775066947,male,english,disjunctive,63ea4a7fa7d709c8e7887a93,68a7004f49b634456a0d7ab1,68a6ee9f7d592818f90008e8,Sound B,1488,2,comprehension
1593,blue,49,,Sound A,Graduated High-school,pleasant,175631,1755775242578,1755775066947,male,english,disjunctive,63ea4a7fa7d709c8e7887a93,68a7004f49b634456a0d7ab1,68a6ee9f7d592818f90008e8,Sound A,5261,3,comprehension
1593,blue,49,,Sound B,Graduated High-school,pleasant,175631,1755775242578,1755775066947,male,english,disjunctive,63ea4a7fa7d709c8e7887a93,68a7004f49b634456a0d7ab1,68a6ee9f7d592818f90008e8,Sound B,4084,4,comprehension
1593,blue,49,,only the islanders know,Graduated High-school,pleasant,175631,1755775242578,1755775066947,male,english,disjunctive,63ea4a7fa7d709c8e7887a93,68a7004f49b634456a0d7ab1,68a6ee9f7d592818f90008e8,only the islanders know,7872,1,comprehension-2
1593,blue,49,,FALSE,Graduated High-school,pleasant,175631,1755775242578,1755775066947,male,english,disjunctive,63ea4a7fa7d709c8e7887a93,68a7004f49b634456a0d7ab1,68a6ee9f7d592818f90008e8,FALSE,2761,2,comprehension-2
1593,blue,49,,NA,Graduated High-school,pleasant,175631,1755775242578,1755775066947,male,english,disjunctive,63ea4a7fa7d709c8e7887a93,68a7004f49b634456a0d7ab1,68a6ee9f7d592818f90008e8,5,40791,1,critical
1594,blue,46,,Sound A,Graduated College,pleasant,129452,1755775253255,1755775123803,female,british,disjunctive,5791dae225cb71000128ad5b,68a70091ca020e36c2824d7e,68a6ee9f7d592818f90008e8,Sound A,11807,1,comprehension
1594,blue,46,,Sound A,Graduated College,pleasant,129452,1755775253255,1755775123803,female,british,disjunctive,5791dae225cb71000128ad5b,68a70091ca020e36c2824d7e,68a6ee9f7d592818f90008e8,Sound A,1241,2,comprehension
1594,blue,46,,Sound A,Graduated College,pleasant,129452,1755775253255,1755775123803,female,british,disjunctive,5791dae225cb71000128ad5b,68a70091ca020e36c2824d7e,68a6ee9f7d592818f90008e8,Sound A,1432,3,comprehension
1594,blue,46,,Sound B,Graduated College,pleasant,129452,1755775253255,1755775123803,female,british,disjunctive,5791dae225cb71000128ad5b,68a70091ca020e36c2824d7e,68a6ee9f7d592818f90008e8,Sound B,1200,4,comprehension
1594,blue,46,,only the islanders know,Graduated College,pleasant,129452,1755775253255,1755775123803,female,british,disjunctive,5791dae225cb71000128ad5b,68a70091ca020e36c2824d7e,68a6ee9f7d592818f90008e8,only the islanders know,6447,1,comprehension-2
1594,blue,46,,FALSE,Graduated College,pleasant,129452,1755775253255,1755775123803,female,british,disjunctive,5791dae225cb71000128ad5b,68a70091ca020e36c2824d7e,68a6ee9f7d592818f90008e8,FALSE,3465,2,comprehension-2
1594,blue,46,,NA,Graduated College,pleasant,129452,1755775253255,1755775123803,female,british,disjunctive,5791dae225cb71000128ad5b,68a70091ca020e36c2824d7e,68a6ee9f7d592818f90008e8,5,21648,1,critical
1597,red,25,N/A,Sound A,Higher degree,pleasant,175268,1756124267627,1756124092359,male,English,disjunctive,66cb2e0bd2169db778550269,68ac53a8d93a9e5019781410,68ac49e7f5750fd7a623e599,Sound A,8508,1,comprehension
1597,red,25,N/A,Sound A,Higher degree,pleasant,175268,1756124267627,1756124092359,male,English,disjunctive,66cb2e0bd2169db778550269,68ac53a8d93a9e5019781410,68ac49e7f5750fd7a623e599,Sound A,4092,2,comprehension
1597,red,25,N/A,Sound A,Higher degree,pleasant,175268,1756124267627,1756124092359,male,English,disjunctive,66cb2e0bd2169db778550269,68ac53a8d93a9e5019781410,68ac49e7f5750fd7a623e599,Sound A,1851,3,comprehension
1597,red,25,N/A,Sound B,Higher degree,pleasant,175268,1756124267627,1756124092359,male,English,disjunctive,66cb2e0bd2169db778550269,68ac53a8d93a9e5019781410,68ac49e7f5750fd7a623e599,Sound B,1821,4,comprehension
1597,red,25,N/A,only the islanders know,Higher degree,pleasant,175268,1756124267627,1756124092359,male,English,disjunctive,66cb2e0bd2169db778550269,68ac53a8d93a9e5019781410,68ac49e7f5750fd7a623e599,90% for blue marbles and 10% for red marbles,8509,1,comprehension-2
1597,red,25,N/A,FALSE,Higher degree,pleasant,175268,1756124267627,1756124092359,male,English,disjunctive,66cb2e0bd2169db778550269,68ac53a8d93a9e5019781410,68ac49e7f5750fd7a623e599,FALSE,3504,2,comprehension-2
1597,red,25,N/A,NA,Higher degree,pleasant,175268,1756124267627,1756124092359,male,English,disjunctive,66cb2e0bd2169db778550269,68ac53a8d93a9e5019781410,68ac49e7f5750fd7a623e599,4,19521,1,critical
1598,blue,79,,Sound A,Graduated High-school,pleasant,219919,1756124310464,1756124090545,male,ENGLISH,conjunctive,5e2872fffcdb020467d12799,68ac53ae0b3db5e98d6d8e18,68ac49e7f5750fd7a623e599,Sound B,44928,1,comprehension
1598,blue,79,,Sound B,Graduated High-school,pleasant,219919,1756124310464,1756124090545,male,ENGLISH,conjunctive,5e2872fffcdb020467d12799,68ac53ae0b3db5e98d6d8e18,68ac49e7f5750fd7a623e599,Sound B,21487,2,comprehension
1598,blue,79,,Sound B,Graduated High-school,pleasant,219919,1756124310464,1756124090545,male,ENGLISH,conjunctive,5e2872fffcdb020467d12799,68ac53ae0b3db5e98d6d8e18,68ac49e7f5750fd7a623e599,Sound A,10601,3,comprehension
1598,blue,79,,Sound B,Graduated High-school,pleasant,219919,1756124310464,1756124090545,male,ENGLISH,conjunctive,5e2872fffcdb020467d12799,68ac53ae0b3db5e98d6d8e18,68ac49e7f5750fd7a623e599,Sound B,8984,4,comprehension
1598,blue,79,,only the islanders know,Graduated High-school,pleasant,219919,1756124310464,1756124090545,male,ENGLISH,conjunctive,5e2872fffcdb020467d12799,68ac53ae0b3db5e98d6d8e18,68ac49e7f5750fd7a623e599,90% for blue marbles and 10% for red marbles,12056,1,comprehension-2
1598,blue,79,,FALSE,Graduated High-school,pleasant,219919,1756124310464,1756124090545,male,ENGLISH,conjunctive,5e2872fffcdb020467d12799,68ac53ae0b3db5e98d6d8e18,68ac49e7f5750fd7a623e599,FALSE,4376,2,comprehension-2
1598,blue,79,,NA,Graduated High-school,pleasant,219919,1756124310464,1756124090545,male,ENGLISH,conjunctive,5e2872fffcdb020467d12799,68ac53ae0b3db5e98d6d8e18,68ac49e7f5750fd7a623e599,6,20776,1,critical
1599,red,55,,Sound A,Graduated College,neutral,163403,1756124366766,1756124203363,male,english,conjunctive,6367a6adb376bcde64f98559,68ac5417208a9284b6a3e3fc,68ac49e7f5750fd7a623e599,Sound A,9614,1,comprehension
1599,red,55,,Sound B,Graduated College,neutral,163403,1756124366766,1756124203363,male,english,conjunctive,6367a6adb376bcde64f98559,68ac5417208a9284b6a3e3fc,68ac49e7f5750fd7a623e599,Sound B,1560,2,comprehension
1599,red,55,,Sound B,Graduated College,neutral,163403,1756124366766,1756124203363,male,english,conjunctive,6367a6adb376bcde64f98559,68ac5417208a9284b6a3e3fc,68ac49e7f5750fd7a623e599,Sound B,1718,3,comprehension
1599,red,55,,Sound B,Graduated College,neutral,163403,1756124366766,1756124203363,male,english,conjunctive,6367a6adb376bcde64f98559,68ac5417208a9284b6a3e3fc,68ac49e7f5750fd7a623e599,Sound B,1376,4,comprehension
1599,red,55,,only the islanders know,Graduated College,neutral,163403,1756124366766,1756124203363,male,english,conjunctive,6367a6adb376bcde64f98559,68ac5417208a9284b6a3e3fc,68ac49e7f5750fd7a623e599,90% for blue marbles and 10% for red marbles,9014,1,comprehension-2
1599,red,55,,FALSE,Graduated College,neutral,163403,1756124366766,1756124203363,male,english,conjunctive,6367a6adb376bcde64f98559,68ac5417208a9284b6a3e3fc,68ac49e7f5750fd7a623e599,FALSE,2867,2,comprehension-2
1599,red,55,,NA,Graduated College,neutral,163403,1756124366766,1756124203363,male,english,conjunctive,6367a6adb376bcde64f98559,68ac5417208a9284b6a3e3fc,68ac49e7f5750fd7a623e599,6,30888,1,critical
1600,blue,32,N/A,Sound A,Higher degree,pleasant,265594,1756124392475,1756124126881,male,English,conjunctive,67a95d468d14bd6324b4bbba,68ac53d50673a62f33682a91,68ac49e7f5750fd7a623e599,Sound A,72300,1,comprehension
1600,blue,32,N/A,Sound B,Higher degree,pleasant,265594,1756124392475,1756124126881,male,English,conjunctive,67a95d468d14bd6324b4bbba,68ac53d50673a62f33682a91,68ac49e7f5750fd7a623e599,Sound B,4944,2,comprehension
1600,blue,32,N/A,Sound B,Higher degree,pleasant,265594,1756124392475,1756124126881,male,English,conjunctive,67a95d468d14bd6324b4bbba,68ac53d50673a62f33682a91,68ac49e7f5750fd7a623e599,Sound B,2840,3,comprehension
1600,blue,32,N/A,Sound B,Higher degree,pleasant,265594,1756124392475,1756124126881,male,English,conjunctive,67a95d468d14bd6324b4bbba,68ac53d50673a62f33682a91,68ac49e7f5750fd7a623e599,Sound B,2960,4,comprehension
1600,blue,32,N/A,only the islanders know,Higher degree,pleasant,265594,1756124392475,1756124126881,male,English,conjunctive,67a95d468d14bd6324b4bbba,68ac53d50673a62f33682a91,68ac49e7f5750fd7a623e599,90% for blue marbles and 10% for red marbles,34756,1,comprehension-2
1600,blue,32,N/A,FALSE,Higher degree,pleasant,265594,1756124392475,1756124126881,male,English,conjunctive,67a95d468d14bd6324b4bbba,68ac53d50673a62f33682a91,68ac49e7f5750fd7a623e599,FALSE,9104,2,comprehension-2
1600,blue,32,N/A,NA,Higher degree,pleasant,265594,1756124392475,1756124126881,male,English,conjunctive,67a95d468d14bd6324b4bbba,68ac53d50673a62f33682a91,68ac49e7f5750fd7a623e599,5,36183,1,critical
1601,blue,49,Jesus died for our sins because He loves us.,Sound A,Graduated College,unpleasant,244183,1756124418753,1756124174570,female,english,conjunctive,5a135875074b1900012527a9,68ac540888bccea49534767e,68ac49e7f5750fd7a623e599,Sound A,2411,1,comprehension
1601,blue,49,Jesus died for our sins because He loves us.,Sound B,Graduated College,unpleasant,244183,1756124418753,1756124174570,female,english,conjunctive,5a135875074b1900012527a9,68ac540888bccea49534767e,68ac49e7f5750fd7a623e599,Sound B,1501,2,comprehension
1601,blue,49,Jesus died for our sins because He loves us.,Sound B,Graduated College,unpleasant,244183,1756124418753,1756124174570,female,english,conjunctive,5a135875074b1900012527a9,68ac540888bccea49534767e,68ac49e7f5750fd7a623e599,Sound B,1192,3,comprehension
1601,blue,49,Jesus died for our sins because He loves us.,Sound B,Graduated College,unpleasant,244183,1756124418753,1756124174570,female,english,conjunctive,5a135875074b1900012527a9,68ac540888bccea49534767e,68ac49e7f5750fd7a623e599,Sound A,2168,4,comprehension
1601,blue,49,Jesus died for our sins because He loves us.,only the islanders know,Graduated College,unpleasant,244183,1756124418753,1756124174570,female,english,conjunctive,5a135875074b1900012527a9,68ac540888bccea49534767e,68ac49e7f5750fd7a623e599,90% for blue marbles and 10% for red marbles,6448,1,comprehension-2
1601,blue,49,Jesus died for our sins because He loves us.,FALSE,Graduated College,unpleasant,244183,1756124418753,1756124174570,female,english,conjunctive,5a135875074b1900012527a9,68ac540888bccea49534767e,68ac49e7f5750fd7a623e599,FALSE,1944,2,comprehension-2
1601,blue,49,Jesus died for our sins because He loves us.,NA,Graduated College,unpleasant,244183,1756124418753,1756124174570,female,english,conjunctive,5a135875074b1900012527a9,68ac540888bccea49534767e,68ac49e7f5750fd7a623e599,4,12168,1,critical
1602,red,60,,Sound A,Graduated High-school,neutral,290164,1756124452764,1756124162600,male,English,disjunctive,61664028d0451f1bf8b9b031,68ac53e248d34d6361a67cef,68ac49e7f5750fd7a623e599,Sound A,3420,1,comprehension
1602,red,60,,Sound A,Graduated High-school,neutral,290164,1756124452764,1756124162600,male,English,disjunctive,61664028d0451f1bf8b9b031,68ac53e248d34d6361a67cef,68ac49e7f5750fd7a623e599,Sound B,2406,2,comprehension
1602,red,60,,Sound A,Graduated High-school,neutral,290164,1756124452764,1756124162600,male,English,disjunctive,61664028d0451f1bf8b9b031,68ac53e248d34d6361a67cef,68ac49e7f5750fd7a623e599,Sound A,1684,3,comprehension
1602,red,60,,Sound B,Graduated High-school,neutral,290164,1756124452764,1756124162600,male,English,disjunctive,61664028d0451f1bf8b9b031,68ac53e248d34d6361a67cef,68ac49e7f5750fd7a623e599,Sound B,1880,4,comprehension
1602,red,60,,only the islanders know,Graduated High-school,neutral,290164,1756124452764,1756124162600,male,English,disjunctive,61664028d0451f1bf8b9b031,68ac53e248d34d6361a67cef,68ac49e7f5750fd7a623e599,90% for blue marbles and 10% for red marbles,14088,1,comprehension-2
1602,red,60,,FALSE,Graduated High-school,neutral,290164,1756124452764,1756124162600,male,English,disjunctive,61664028d0451f1bf8b9b031,68ac53e248d34d6361a67cef,68ac49e7f5750fd7a623e599,FALSE,8552,2,comprehension-2
1602,red,60,,NA,Graduated High-school,neutral,290164,1756124452764,1756124162600,male,English,disjunctive,61664028d0451f1bf8b9b031,68ac53e248d34d6361a67cef,68ac49e7f5750fd7a623e599,7,51868,1,critical
1603,red,43,,Sound A,Graduated College,unpleasant,202121,1756124450168,1756124248047,female,English,conjunctive,613dd0f423a5be35aff90579,68ac5466905e5b6407840d00,68ac49e7f5750fd7a623e599,Sound A,13521,1,comprehension
1603,red,43,,Sound B,Graduated College,unpleasant,202121,1756124450168,1756124248047,female,English,conjunctive,613dd0f423a5be35aff90579,68ac5466905e5b6407840d00,68ac49e7f5750fd7a623e599,Sound B,2848,2,comprehension
1603,red,43,,Sound B,Graduated College,unpleasant,202121,1756124450168,1756124248047,female,English,conjunctive,613dd0f423a5be35aff90579,68ac5466905e5b6407840d00,68ac49e7f5750fd7a623e599,Sound B,1183,3,comprehension
1603,red,43,,Sound B,Graduated College,unpleasant,202121,1756124450168,1756124248047,female,English,conjunctive,613dd0f423a5be35aff90579,68ac5466905e5b6407840d00,68ac49e7f5750fd7a623e599,Sound B,1184,4,comprehension
1603,red,43,,only the islanders know,Graduated College,unpleasant,202121,1756124450168,1756124248047,female,English,conjunctive,613dd0f423a5be35aff90579,68ac5466905e5b6407840d00,68ac49e7f5750fd7a623e599,90% for blue marbles and 10% for red marbles,11649,1,comprehension-2
1603,red,43,,FALSE,Graduated College,unpleasant,202121,1756124450168,1756124248047,female,English,conjunctive,613dd0f423a5be35aff90579,68ac5466905e5b6407840d00,68ac49e7f5750fd7a623e599,FALSE,5847,2,comprehension-2
1603,red,43,,NA,Graduated College,unpleasant,202121,1756124450168,1756124248047,female,English,conjunctive,613dd0f423a5be35aff90579,68ac5466905e5b6407840d00,68ac49e7f5750fd7a623e599,4,40656,1,critical
1604,red,33,Thank you,Sound A,Higher degree,unpleasant,318392,1756124480265,1756124161873,male,English,disjunctive,62a3b97d41ae082b602e815b,68ac53fc3d695af6a6fcc4b3,68ac49e7f5750fd7a623e599,Sound A,25959,1,comprehension
1604,red,33,Thank you,Sound A,Higher degree,unpleasant,318392,1756124480265,1756124161873,male,English,disjunctive,62a3b97d41ae082b602e815b,68ac53fc3d695af6a6fcc4b3,68ac49e7f5750fd7a623e599,Sound A,6550,2,comprehension
1604,red,33,Thank you,Sound A,Higher degree,unpleasant,318392,1756124480265,1756124161873,male,English,disjunctive,62a3b97d41ae082b602e815b,68ac53fc3d695af6a6fcc4b3,68ac49e7f5750fd7a623e599,Sound A,1797,3,comprehension
1604,red,33,Thank you,Sound B,Higher degree,unpleasant,318392,1756124480265,1756124161873,male,English,disjunctive,62a3b97d41ae082b602e815b,68ac53fc3d695af6a6fcc4b3,68ac49e7f5750fd7a623e599,Sound B,2259,4,comprehension
1604,red,33,Thank you,only the islanders know,Higher degree,unpleasant,318392,1756124480265,1756124161873,male,English,disjunctive,62a3b97d41ae082b602e815b,68ac53fc3d695af6a6fcc4b3,68ac49e7f5750fd7a623e599,90% for blue marbles and 10% for red marbles,27580,1,comprehension-2
1604,red,33,Thank you,FALSE,Higher degree,unpleasant,318392,1756124480265,1756124161873,male,English,disjunctive,62a3b97d41ae082b602e815b,68ac53fc3d695af6a6fcc4b3,68ac49e7f5750fd7a623e599,FALSE,8111,2,comprehension-2
1604,red,33,Thank you,NA,Higher degree,unpleasant,318392,1756124480265,1756124161873,male,English,disjunctive,62a3b97d41ae082b602e815b,68ac53fc3d695af6a6fcc4b3,68ac49e7f5750fd7a623e599,6,48295,1,critical
1605,red,34,weird study,Sound A,Did not graduate High-school,unpleasant,285496,1756124494249,1756124208753,male,english,conjunctive,611943dcb8b11a7b6cf6b596,68ac5418b40e623d052814a7,68ac49e7f5750fd7a623e599,Sound A,3739,1,comprehension
1605,red,34,weird study,Sound B,Did not graduate High-school,unpleasant,285496,1756124494249,1756124208753,male,english,conjunctive,611943dcb8b11a7b6cf6b596,68ac5418b40e623d052814a7,68ac49e7f5750fd7a623e599,Sound B,1688,2,comprehension
1605,red,34,weird study,Sound B,Did not graduate High-school,unpleasant,285496,1756124494249,1756124208753,male,english,conjunctive,611943dcb8b11a7b6cf6b596,68ac5418b40e623d052814a7,68ac49e7f5750fd7a623e599,Sound B,1454,3,comprehension
1605,red,34,weird study,Sound B,Did not graduate High-school,unpleasant,285496,1756124494249,1756124208753,male,english,conjunctive,611943dcb8b11a7b6cf6b596,68ac5418b40e623d052814a7,68ac49e7f5750fd7a623e599,Sound B,877,4,comprehension
1605,red,34,weird study,only the islanders know,Did not graduate High-school,unpleasant,285496,1756124494249,1756124208753,male,english,conjunctive,611943dcb8b11a7b6cf6b596,68ac5418b40e623d052814a7,68ac49e7f5750fd7a623e599,90% for blue marbles and 10% for red marbles,7720,1,comprehension-2
1605,red,34,weird study,FALSE,Did not graduate High-school,unpleasant,285496,1756124494249,1756124208753,male,english,conjunctive,611943dcb8b11a7b6cf6b596,68ac5418b40e623d052814a7,68ac49e7f5750fd7a623e599,FALSE,4120,2,comprehension-2
1605,red,34,weird study,NA,Did not graduate High-school,unpleasant,285496,1756124494249,1756124208753,male,english,conjunctive,611943dcb8b11a7b6cf6b596,68ac5418b40e623d052814a7,68ac49e7f5750fd7a623e599,5,36825,1,critical
1607,blue,33,,Sound A,Graduated College,pleasant,175521,1756124505692,1756124330171,female,English,conjunctive,63038a4810d4751896ffcd01,68ac54a35ff265bcb6a6babb,68ac49e7f5750fd7a623e599,Sound A,10298,1,comprehension
1607,blue,33,,Sound B,Graduated College,pleasant,175521,1756124505692,1756124330171,female,English,conjunctive,63038a4810d4751896ffcd01,68ac54a35ff265bcb6a6babb,68ac49e7f5750fd7a623e599,Sound B,1306,2,comprehension
1607,blue,33,,Sound B,Graduated College,pleasant,175521,1756124505692,1756124330171,female,English,conjunctive,63038a4810d4751896ffcd01,68ac54a35ff265bcb6a6babb,68ac49e7f5750fd7a623e599,Sound B,1175,3,comprehension
1607,blue,33,,Sound B,Graduated College,pleasant,175521,1756124505692,1756124330171,female,English,conjunctive,63038a4810d4751896ffcd01,68ac54a35ff265bcb6a6babb,68ac49e7f5750fd7a623e599,Sound B,877,4,comprehension
1607,blue,33,,only the islanders know,Graduated College,pleasant,175521,1756124505692,1756124330171,female,English,conjunctive,63038a4810d4751896ffcd01,68ac54a35ff265bcb6a6babb,68ac49e7f5750fd7a623e599,90% for blue marbles and 10% for red marbles,13810,1,comprehension-2
1607,blue,33,,FALSE,Graduated College,pleasant,175521,1756124505692,1756124330171,female,English,conjunctive,63038a4810d4751896ffcd01,68ac54a35ff265bcb6a6babb,68ac49e7f5750fd7a623e599,FALSE,3114,2,comprehension-2
1607,blue,33,,NA,Graduated College,pleasant,175521,1756124505692,1756124330171,female,English,conjunctive,63038a4810d4751896ffcd01,68ac54a35ff265bcb6a6babb,68ac49e7f5750fd7a623e599,6,53504,1,critical
1621,blue,50,,Sound A,Graduated College,pleasant,186396,1756124618826,1756124432430,female,English,conjunctive,65cbb49693940ca0627dbc8d,68ac55048e4577fc565c412d,68ac49e7f5750fd7a623e599,Sound A,16916,1,comprehension
1621,blue,50,,Sound B,Graduated College,pleasant,186396,1756124618826,1756124432430,female,English,conjunctive,65cbb49693940ca0627dbc8d,68ac55048e4577fc565c412d,68ac49e7f5750fd7a623e599,Sound B,2147,2,comprehension
1621,blue,50,,Sound B,Graduated College,pleasant,186396,1756124618826,1756124432430,female,English,conjunctive,65cbb49693940ca0627dbc8d,68ac55048e4577fc565c412d,68ac49e7f5750fd7a623e599,Sound B,1421,3,comprehension
1621,blue,50,,Sound B,Graduated College,pleasant,186396,1756124618826,1756124432430,female,English,conjunctive,65cbb49693940ca0627dbc8d,68ac55048e4577fc565c412d,68ac49e7f5750fd7a623e599,Sound B,1025,4,comprehension
1621,blue,50,,only the islanders know,Graduated College,pleasant,186396,1756124618826,1756124432430,female,English,conjunctive,65cbb49693940ca0627dbc8d,68ac55048e4577fc565c412d,68ac49e7f5750fd7a623e599,90% for blue marbles and 10% for red marbles,5871,1,comprehension-2
1621,blue,50,,FALSE,Graduated College,pleasant,186396,1756124618826,1756124432430,female,English,conjunctive,65cbb49693940ca0627dbc8d,68ac55048e4577fc565c412d,68ac49e7f5750fd7a623e599,FALSE,3489,2,comprehension-2
1621,blue,50,,NA,Graduated College,pleasant,186396,1756124618826,1756124432430,female,English,conjunctive,65cbb49693940ca0627dbc8d,68ac55048e4577fc565c412d,68ac49e7f5750fd7a623e599,6,31052,1,critical
1622,red,21,,Sound A,Graduated High-school,neutral,167929,1756124627012,1756124459083,male,English,conjunctive,676055469b245b53e81358d0,68ac55221cd7b8d616b05650,68ac49e7f5750fd7a623e599,Sound A,7873,1,comprehension
1622,red,21,,Sound B,Graduated High-school,neutral,167929,1756124627012,1756124459083,male,English,conjunctive,676055469b245b53e81358d0,68ac55221cd7b8d616b05650,68ac49e7f5750fd7a623e599,Sound A,1958,2,comprehension
1622,red,21,,Sound B,Graduated High-school,neutral,167929,1756124627012,1756124459083,male,English,conjunctive,676055469b245b53e81358d0,68ac55221cd7b8d616b05650,68ac49e7f5750fd7a623e599,Sound A,5473,3,comprehension
1622,red,21,,Sound B,Graduated High-school,neutral,167929,1756124627012,1756124459083,male,English,conjunctive,676055469b245b53e81358d0,68ac55221cd7b8d616b05650,68ac49e7f5750fd7a623e599,Sound A,573,4,comprehension
1622,red,21,,only the islanders know,Graduated High-school,neutral,167929,1756124627012,1756124459083,male,English,conjunctive,676055469b245b53e81358d0,68ac55221cd7b8d616b05650,68ac49e7f5750fd7a623e599,only the islanders know,5865,1,comprehension-2
1622,red,21,,FALSE,Graduated High-school,neutral,167929,1756124627012,1756124459083,male,English,conjunctive,676055469b245b53e81358d0,68ac55221cd7b8d616b05650,68ac49e7f5750fd7a623e599,FALSE,2476,2,comprehension-2
1622,red,21,,NA,Graduated High-school,neutral,167929,1756124627012,1756124459083,male,English,conjunctive,676055469b245b53e81358d0,68ac55221cd7b8d616b05650,68ac49e7f5750fd7a623e599,4,27226,1,critical
1630,red,54,,Sound A,Graduated College,pleasant,272567,1756124667650,1756124395083,male,English,disjunctive,5cfde288bab656000198b943,68ac54d1e44d0814476a1565,68ac49e7f5750fd7a623e599,Sound A,13027,1,comprehension
1630,red,54,,Sound A,Graduated College,pleasant,272567,1756124667650,1756124395083,male,English,disjunctive,5cfde288bab656000198b943,68ac54d1e44d0814476a1565,68ac49e7f5750fd7a623e599,Sound A,2283,2,comprehension
1630,red,54,,Sound A,Graduated College,pleasant,272567,1756124667650,1756124395083,male,English,disjunctive,5cfde288bab656000198b943,68ac54d1e44d0814476a1565,68ac49e7f5750fd7a623e599,Sound A,6841,3,comprehension
1630,red,54,,Sound B,Graduated College,pleasant,272567,1756124667650,1756124395083,male,English,disjunctive,5cfde288bab656000198b943,68ac54d1e44d0814476a1565,68ac49e7f5750fd7a623e599,Sound B,2364,4,comprehension
1630,red,54,,only the islanders know,Graduated College,pleasant,272567,1756124667650,1756124395083,male,English,disjunctive,5cfde288bab656000198b943,68ac54d1e44d0814476a1565,68ac49e7f5750fd7a623e599,only the islanders know,14573,1,comprehension-2
1630,red,54,,FALSE,Graduated College,pleasant,272567,1756124667650,1756124395083,male,English,disjunctive,5cfde288bab656000198b943,68ac54d1e44d0814476a1565,68ac49e7f5750fd7a623e599,FALSE,2607,2,comprehension-2
1630,red,54,,NA,Graduated College,pleasant,272567,1756124667650,1756124395083,male,English,disjunctive,5cfde288bab656000198b943,68ac54d1e44d0814476a1565,68ac49e7f5750fd7a623e599,2,73464,1,critical
1636,blue,54,,Sound A,Graduated College,pleasant,298202,1756124683023,1756124384821,female,English,disjunctive,66faeeeafd0c076eec88cfcb,68ac54571987b035fc8cf2f5,68ac49e7f5750fd7a623e599,Sound A,5381,1,comprehension
1636,blue,54,,Sound A,Graduated College,pleasant,298202,1756124683023,1756124384821,female,English,disjunctive,66faeeeafd0c076eec88cfcb,68ac54571987b035fc8cf2f5,68ac49e7f5750fd7a623e599,Sound A,43165,2,comprehension
1636,blue,54,,Sound A,Graduated College,pleasant,298202,1756124683023,1756124384821,female,English,disjunctive,66faeeeafd0c076eec88cfcb,68ac54571987b035fc8cf2f5,68ac49e7f5750fd7a623e599,Sound A,11677,3,comprehension
1636,blue,54,,Sound B,Graduated College,pleasant,298202,1756124683023,1756124384821,female,English,disjunctive,66faeeeafd0c076eec88cfcb,68ac54571987b035fc8cf2f5,68ac49e7f5750fd7a623e599,Sound A,101,4,comprehension
1636,blue,54,,only the islanders know,Graduated College,pleasant,298202,1756124683023,1756124384821,female,English,disjunctive,66faeeeafd0c076eec88cfcb,68ac54571987b035fc8cf2f5,68ac49e7f5750fd7a623e599,90% for blue marbles and 10% for red marbles,28985,1,comprehension-2
1636,blue,54,,FALSE,Graduated College,pleasant,298202,1756124683023,1756124384821,female,English,disjunctive,66faeeeafd0c076eec88cfcb,68ac54571987b035fc8cf2f5,68ac49e7f5750fd7a623e599,FALSE,17623,2,comprehension-2
1636,blue,54,,NA,Graduated College,pleasant,298202,1756124683023,1756124384821,female,English,disjunctive,66faeeeafd0c076eec88cfcb,68ac54571987b035fc8cf2f5,68ac49e7f5750fd7a623e599,6,55776,1,critical
1643,red,66,,Sound A,Graduated College,neutral,293050,1756124719727,1756124426677,male,English,conjunctive,5bd2034025db7b000178ad8a,68ac550063dc38b249a1e0ca,68ac49e7f5750fd7a623e599,Sound A,22173,1,comprehension
1643,red,66,,Sound B,Graduated College,neutral,293050,1756124719727,1756124426677,male,English,conjunctive,5bd2034025db7b000178ad8a,68ac550063dc38b249a1e0ca,68ac49e7f5750fd7a623e599,Sound B,2623,2,comprehension
1643,red,66,,Sound B,Graduated College,neutral,293050,1756124719727,1756124426677,male,English,conjunctive,5bd2034025db7b000178ad8a,68ac550063dc38b249a1e0ca,68ac49e7f5750fd7a623e599,Sound B,1302,3,comprehension
1643,red,66,,Sound B,Graduated College,neutral,293050,1756124719727,1756124426677,male,English,conjunctive,5bd2034025db7b000178ad8a,68ac550063dc38b249a1e0ca,68ac49e7f5750fd7a623e599,Sound B,1250,4,comprehension
1643,red,66,,only the islanders know,Graduated College,neutral,293050,1756124719727,1756124426677,male,English,conjunctive,5bd2034025db7b000178ad8a,68ac550063dc38b249a1e0ca,68ac49e7f5750fd7a623e599,only the islanders know,10608,1,comprehension-2
1643,red,66,,FALSE,Graduated College,neutral,293050,1756124719727,1756124426677,male,English,conjunctive,5bd2034025db7b000178ad8a,68ac550063dc38b249a1e0ca,68ac49e7f5750fd7a623e599,FALSE,7489,2,comprehension-2
1643,red,66,,NA,Graduated College,neutral,293050,1756124719727,1756124426677,male,English,conjunctive,5bd2034025db7b000178ad8a,68ac550063dc38b249a1e0ca,68ac49e7f5750fd7a623e599,6,93117,1,critical
1652,red,58,,Sound A,Higher degree,pleasant,350508,1756124753161,1756124402653,male,English,conjunctive,66abb02dca4e0b7e7bdde362,68ac54e8c371c67e062a2485,68ac49e7f5750fd7a623e599,Sound A,18276,1,comprehension
1652,red,58,,Sound B,Higher degree,pleasant,350508,1756124753161,1756124402653,male,English,conjunctive,66abb02dca4e0b7e7bdde362,68ac54e8c371c67e062a2485,68ac49e7f5750fd7a623e599,Sound B,2740,2,comprehension
1652,red,58,,Sound B,Higher degree,pleasant,350508,1756124753161,1756124402653,male,English,conjunctive,66abb02dca4e0b7e7bdde362,68ac54e8c371c67e062a2485,68ac49e7f5750fd7a623e599,Sound B,1263,3,comprehension
1652,red,58,,Sound B,Higher degree,pleasant,350508,1756124753161,1756124402653,male,English,conjunctive,66abb02dca4e0b7e7bdde362,68ac54e8c371c67e062a2485,68ac49e7f5750fd7a623e599,Sound B,1933,4,comprehension
1652,red,58,,only the islanders know,Higher degree,pleasant,350508,1756124753161,1756124402653,male,English,conjunctive,66abb02dca4e0b7e7bdde362,68ac54e8c371c67e062a2485,68ac49e7f5750fd7a623e599,only the islanders know,7616,1,comprehension-2
1652,red,58,,FALSE,Higher degree,pleasant,350508,1756124753161,1756124402653,male,English,conjunctive,66abb02dca4e0b7e7bdde362,68ac54e8c371c67e062a2485,68ac49e7f5750fd7a623e599,FALSE,3567,2,comprehension-2
1652,red,58,,NA,Higher degree,pleasant,350508,1756124753161,1756124402653,male,English,conjunctive,66abb02dca4e0b7e7bdde362,68ac54e8c371c67e062a2485,68ac49e7f5750fd7a623e599,7,45848,1,critical
1606,red,59,,Sound A,Graduated College,unpleasant,301808,1756124503730,1756124201922,female,English,conjunctive,5e57e67bb836e0000d222062,68ac541946ab5d235ab055e1,68ac49e7f5750fd7a623e599,Sound A,16459,1,comprehension
1606,red,59,,Sound B,Graduated College,unpleasant,301808,1756124503730,1756124201922,female,English,conjunctive,5e57e67bb836e0000d222062,68ac541946ab5d235ab055e1,68ac49e7f5750fd7a623e599,Sound B,3524,2,comprehension
1606,red,59,,Sound B,Graduated College,unpleasant,301808,1756124503730,1756124201922,female,English,conjunctive,5e57e67bb836e0000d222062,68ac541946ab5d235ab055e1,68ac49e7f5750fd7a623e599,Sound B,8927,3,comprehension
1606,red,59,,Sound B,Graduated College,unpleasant,301808,1756124503730,1756124201922,female,English,conjunctive,5e57e67bb836e0000d222062,68ac541946ab5d235ab055e1,68ac49e7f5750fd7a623e599,Sound B,1647,4,comprehension
1606,red,59,,only the islanders know,Graduated College,unpleasant,301808,1756124503730,1756124201922,female,English,conjunctive,5e57e67bb836e0000d222062,68ac541946ab5d235ab055e1,68ac49e7f5750fd7a623e599,90% for blue marbles and 10% for red marbles,20333,1,comprehension-2
1606,red,59,,FALSE,Graduated College,unpleasant,301808,1756124503730,1756124201922,female,English,conjunctive,5e57e67bb836e0000d222062,68ac541946ab5d235ab055e1,68ac49e7f5750fd7a623e599,FALSE,4387,2,comprehension-2
1606,red,59,,NA,Graduated College,unpleasant,301808,1756124503730,1756124201922,female,English,conjunctive,5e57e67bb836e0000d222062,68ac541946ab5d235ab055e1,68ac49e7f5750fd7a623e599,4,65957,1,critical
1609,blue,48,,Sound A,Higher degree,unpleasant,293046,1756124527877,1756124234831,male,United Kingdom,conjunctive,5b5ecd4b7757ed000198d434,68ac542de06b951adba90805,68ac49e7f5750fd7a623e599,Sound A,35601,1,comprehension
1609,blue,48,,Sound B,Higher degree,unpleasant,293046,1756124527877,1756124234831,male,United Kingdom,conjunctive,5b5ecd4b7757ed000198d434,68ac542de06b951adba90805,68ac49e7f5750fd7a623e599,Sound B,30774,2,comprehension
1609,blue,48,,Sound B,Higher degree,unpleasant,293046,1756124527877,1756124234831,male,United Kingdom,conjunctive,5b5ecd4b7757ed000198d434,68ac542de06b951adba90805,68ac49e7f5750fd7a623e599,Sound B,26297,3,comprehension
1609,blue,48,,Sound B,Higher degree,unpleasant,293046,1756124527877,1756124234831,male,United Kingdom,conjunctive,5b5ecd4b7757ed000198d434,68ac542de06b951adba90805,68ac49e7f5750fd7a623e599,Sound B,23703,4,comprehension
1609,blue,48,,only the islanders know,Higher degree,unpleasant,293046,1756124527877,1756124234831,male,United Kingdom,conjunctive,5b5ecd4b7757ed000198d434,68ac542de06b951adba90805,68ac49e7f5750fd7a623e599,only the islanders know,27102,1,comprehension-2
1609,blue,48,,FALSE,Higher degree,unpleasant,293046,1756124527877,1756124234831,male,United Kingdom,conjunctive,5b5ecd4b7757ed000198d434,68ac542de06b951adba90805,68ac49e7f5750fd7a623e599,FALSE,31092,2,comprehension-2
1609,blue,48,,NA,Higher degree,unpleasant,293046,1756124527877,1756124234831,male,United Kingdom,conjunctive,5b5ecd4b7757ed000198d434,68ac542de06b951adba90805,68ac49e7f5750fd7a623e599,6,40022,1,critical
1610,red,33,,Sound A,Graduated College,neutral,299196,1756124531617,1756124232421,male,english,conjunctive,608d247fc141c8230ce3ebdc,68ac543ee8bb06381af8a148,68ac49e7f5750fd7a623e599,Sound A,4723,1,comprehension
1610,red,33,,Sound B,Graduated College,neutral,299196,1756124531617,1756124232421,male,english,conjunctive,608d247fc141c8230ce3ebdc,68ac543ee8bb06381af8a148,68ac49e7f5750fd7a623e599,Sound B,3441,2,comprehension
1610,red,33,,Sound B,Graduated College,neutral,299196,1756124531617,1756124232421,male,english,conjunctive,608d247fc141c8230ce3ebdc,68ac543ee8bb06381af8a148,68ac49e7f5750fd7a623e599,Sound B,3322,3,comprehension
1610,red,33,,Sound B,Graduated College,neutral,299196,1756124531617,1756124232421,male,english,conjunctive,608d247fc141c8230ce3ebdc,68ac543ee8bb06381af8a148,68ac49e7f5750fd7a623e599,Sound A,1893,4,comprehension
1610,red,33,,only the islanders know,Graduated College,neutral,299196,1756124531617,1756124232421,male,english,conjunctive,608d247fc141c8230ce3ebdc,68ac543ee8bb06381af8a148,68ac49e7f5750fd7a623e599,only the islanders know,7931,1,comprehension-2
1610,red,33,,FALSE,Graduated College,neutral,299196,1756124531617,1756124232421,male,english,conjunctive,608d247fc141c8230ce3ebdc,68ac543ee8bb06381af8a148,68ac49e7f5750fd7a623e599,FALSE,3733,2,comprehension-2
1610,red,33,,NA,Graduated College,neutral,299196,1756124531617,1756124232421,male,english,conjunctive,608d247fc141c8230ce3ebdc,68ac543ee8bb06381af8a148,68ac49e7f5750fd7a623e599,5,67987,1,critical
1611,red,47,,Sound A,Graduated College,unpleasant,187502,1756124559448,1756124371946,female,English,disjunctive,63ced9adadc38e1acc2b58b6,68ac54be9582daa271e473a1,68ac49e7f5750fd7a623e599,Sound A,11239,1,comprehension
1611,red,47,,Sound A,Graduated College,unpleasant,187502,1756124559448,1756124371946,female,English,disjunctive,63ced9adadc38e1acc2b58b6,68ac54be9582daa271e473a1,68ac49e7f5750fd7a623e599,Sound A,7677,2,comprehension
1611,red,47,,Sound A,Graduated College,unpleasant,187502,1756124559448,1756124371946,female,English,disjunctive,63ced9adadc38e1acc2b58b6,68ac54be9582daa271e473a1,68ac49e7f5750fd7a623e599,Sound B,3496,3,comprehension
1611,red,47,,Sound B,Graduated College,unpleasant,187502,1756124559448,1756124371946,female,English,disjunctive,63ced9adadc38e1acc2b58b6,68ac54be9582daa271e473a1,68ac49e7f5750fd7a623e599,Sound B,2799,4,comprehension
1611,red,47,,only the islanders know,Graduated College,unpleasant,187502,1756124559448,1756124371946,female,English,disjunctive,63ced9adadc38e1acc2b58b6,68ac54be9582daa271e473a1,68ac49e7f5750fd7a623e599,90% for blue marbles and 10% for red marbles,7910,1,comprehension-2
1611,red,47,,FALSE,Graduated College,unpleasant,187502,1756124559448,1756124371946,female,English,disjunctive,63ced9adadc38e1acc2b58b6,68ac54be9582daa271e473a1,68ac49e7f5750fd7a623e599,FALSE,4245,2,comprehension-2
1611,red,47,,NA,Graduated College,unpleasant,187502,1756124559448,1756124371946,female,English,disjunctive,63ced9adadc38e1acc2b58b6,68ac54be9582daa271e473a1,68ac49e7f5750fd7a623e599,5,39307,1,critical
1612,blue,44,,Sound A,Higher degree,unpleasant,214561,1756124576721,1756124362160,male,English,disjunctive,5bfd667f1fe1e50001406d4c,68ac54c28af1fcff311e041f,68ac49e7f5750fd7a623e599,Sound A,7235,1,comprehension
1612,blue,44,,Sound A,Higher degree,unpleasant,214561,1756124576721,1756124362160,male,English,disjunctive,5bfd667f1fe1e50001406d4c,68ac54c28af1fcff311e041f,68ac49e7f5750fd7a623e599,Sound A,1782,2,comprehension
1612,blue,44,,Sound A,Higher degree,unpleasant,214561,1756124576721,1756124362160,male,English,disjunctive,5bfd667f1fe1e50001406d4c,68ac54c28af1fcff311e041f,68ac49e7f5750fd7a623e599,Sound A,1279,3,comprehension
1612,blue,44,,Sound B,Higher degree,unpleasant,214561,1756124576721,1756124362160,male,English,disjunctive,5bfd667f1fe1e50001406d4c,68ac54c28af1fcff311e041f,68ac49e7f5750fd7a623e599,Sound B,853,4,comprehension
1612,blue,44,,only the islanders know,Higher degree,unpleasant,214561,1756124576721,1756124362160,male,English,disjunctive,5bfd667f1fe1e50001406d4c,68ac54c28af1fcff311e041f,68ac49e7f5750fd7a623e599,90% for blue marbles and 10% for red marbles,13191,1,comprehension-2
1612,blue,44,,FALSE,Higher degree,unpleasant,214561,1756124576721,1756124362160,male,English,disjunctive,5bfd667f1fe1e50001406d4c,68ac54c28af1fcff311e041f,68ac49e7f5750fd7a623e599,FALSE,4079,2,comprehension-2
1612,blue,44,,NA,Higher degree,unpleasant,214561,1756124576721,1756124362160,male,English,disjunctive,5bfd667f1fe1e50001406d4c,68ac54c28af1fcff311e041f,68ac49e7f5750fd7a623e599,2,31581,1,critical
1614,blue,26,I think the wording for the blue and red marble causing the tone that is doesn't have to be at the same time and that it can be either blue or red.,Sound A,Graduated College,pleasant,350465,1756124580432,1756124229967,female,English,disjunctive,5f08d79de54da413c09fc906,68ac5441fc1484bb86d28151,68ac49e7f5750fd7a623e599,Sound A,16536,1,comprehension
1614,blue,26,I think the wording for the blue and red marble causing the tone that is doesn't have to be at the same time and that it can be either blue or red.,Sound A,Graduated College,pleasant,350465,1756124580432,1756124229967,female,English,disjunctive,5f08d79de54da413c09fc906,68ac5441fc1484bb86d28151,68ac49e7f5750fd7a623e599,Sound B,17333,2,comprehension
1614,blue,26,I think the wording for the blue and red marble causing the tone that is doesn't have to be at the same time and that it can be either blue or red.,Sound A,Graduated College,pleasant,350465,1756124580432,1756124229967,female,English,disjunctive,5f08d79de54da413c09fc906,68ac5441fc1484bb86d28151,68ac49e7f5750fd7a623e599,Sound B,3296,3,comprehension
1614,blue,26,I think the wording for the blue and red marble causing the tone that is doesn't have to be at the same time and that it can be either blue or red.,Sound B,Graduated College,pleasant,350465,1756124580432,1756124229967,female,English,disjunctive,5f08d79de54da413c09fc906,68ac5441fc1484bb86d28151,68ac49e7f5750fd7a623e599,Sound B,1548,4,comprehension
1614,blue,26,I think the wording for the blue and red marble causing the tone that is doesn't have to be at the same time and that it can be either blue or red.,only the islanders know,Graduated College,pleasant,350465,1756124580432,1756124229967,female,English,disjunctive,5f08d79de54da413c09fc906,68ac5441fc1484bb86d28151,68ac49e7f5750fd7a623e599,only the islanders know,9381,1,comprehension-2
1614,blue,26,I think the wording for the blue and red marble causing the tone that is doesn't have to be at the same time and that it can be either blue or red.,FALSE,Graduated College,pleasant,350465,1756124580432,1756124229967,female,English,disjunctive,5f08d79de54da413c09fc906,68ac5441fc1484bb86d28151,68ac49e7f5750fd7a623e599,FALSE,6122,2,comprehension-2
1614,blue,26,I think the wording for the blue and red marble causing the tone that is doesn't have to be at the same time and that it can be either blue or red.,NA,Graduated College,pleasant,350465,1756124580432,1756124229967,female,English,disjunctive,5f08d79de54da413c09fc906,68ac5441fc1484bb86d28151,68ac49e7f5750fd7a623e599,4,86367,1,critical
1616,blue,70,,Sound A,Graduated College,pleasant,228072,1756124595079,1756124367007,male,English,conjunctive,682b3f63d0e2c4eff64fe664,68ac54c1bead45734b3c09a9,68ac49e7f5750fd7a623e599,Sound A,7482,1,comprehension
1616,blue,70,,Sound B,Graduated College,pleasant,228072,1756124595079,1756124367007,male,English,conjunctive,682b3f63d0e2c4eff64fe664,68ac54c1bead45734b3c09a9,68ac49e7f5750fd7a623e599,Sound B,7596,2,comprehension
1616,blue,70,,Sound B,Graduated College,pleasant,228072,1756124595079,1756124367007,male,English,conjunctive,682b3f63d0e2c4eff64fe664,68ac54c1bead45734b3c09a9,68ac49e7f5750fd7a623e599,Sound B,3460,3,comprehension
1616,blue,70,,Sound B,Graduated College,pleasant,228072,1756124595079,1756124367007,male,English,conjunctive,682b3f63d0e2c4eff64fe664,68ac54c1bead45734b3c09a9,68ac49e7f5750fd7a623e599,Sound B,838,4,comprehension
1616,blue,70,,only the islanders know,Graduated College,pleasant,228072,1756124595079,1756124367007,male,English,conjunctive,682b3f63d0e2c4eff64fe664,68ac54c1bead45734b3c09a9,68ac49e7f5750fd7a623e599,only the islanders know,11828,1,comprehension-2
1616,blue,70,,FALSE,Graduated College,pleasant,228072,1756124595079,1756124367007,male,English,conjunctive,682b3f63d0e2c4eff64fe664,68ac54c1bead45734b3c09a9,68ac49e7f5750fd7a623e599,FALSE,3511,2,comprehension-2
1616,blue,70,,NA,Graduated College,pleasant,228072,1756124595079,1756124367007,male,English,conjunctive,682b3f63d0e2c4eff64fe664,68ac54c1bead45734b3c09a9,68ac49e7f5750fd7a623e599,7,44049,1,critical
1620,red,50,,Sound A,Graduated College,pleasant,217734,1756124618145,1756124400411,male,English,conjunctive,6662bbd11599452943304086,68ac54e7285b6e9d98028021,68ac49e7f5750fd7a623e599,Sound A,22635,1,comprehension
1620,red,50,,Sound B,Graduated College,pleasant,217734,1756124618145,1756124400411,male,English,conjunctive,6662bbd11599452943304086,68ac54e7285b6e9d98028021,68ac49e7f5750fd7a623e599,Sound B,3329,2,comprehension
1620,red,50,,Sound B,Graduated College,pleasant,217734,1756124618145,1756124400411,male,English,conjunctive,6662bbd11599452943304086,68ac54e7285b6e9d98028021,68ac49e7f5750fd7a623e599,Sound B,4992,3,comprehension
1620,red,50,,Sound B,Graduated College,pleasant,217734,1756124618145,1756124400411,male,English,conjunctive,6662bbd11599452943304086,68ac54e7285b6e9d98028021,68ac49e7f5750fd7a623e599,Sound B,2200,4,comprehension
1620,red,50,,only the islanders know,Graduated College,pleasant,217734,1756124618145,1756124400411,male,English,conjunctive,6662bbd11599452943304086,68ac54e7285b6e9d98028021,68ac49e7f5750fd7a623e599,only the islanders know,18114,1,comprehension-2
1620,red,50,,FALSE,Graduated College,pleasant,217734,1756124618145,1756124400411,male,English,conjunctive,6662bbd11599452943304086,68ac54e7285b6e9d98028021,68ac49e7f5750fd7a623e599,FALSE,3953,2,comprehension-2
1620,red,50,,NA,Graduated College,pleasant,217734,1756124618145,1756124400411,male,English,conjunctive,6662bbd11599452943304086,68ac54e7285b6e9d98028021,68ac49e7f5750fd7a623e599,2,61192,1,critical
1670,red,27,,Sound A,Higher degree,unpleasant,206416,1756124838450,1756124632034,male,Englush,conjunctive,666f2a40a2a79b7740744a62,68ac55d1e22b2d819c839dd1,68ac49e7f5750fd7a623e599,Sound A,2406,1,comprehension
1670,red,27,,Sound B,Higher degree,unpleasant,206416,1756124838450,1756124632034,male,Englush,conjunctive,666f2a40a2a79b7740744a62,68ac55d1e22b2d819c839dd1,68ac49e7f5750fd7a623e599,Sound A,19415,2,comprehension
1670,red,27,,Sound B,Higher degree,unpleasant,206416,1756124838450,1756124632034,male,Englush,conjunctive,666f2a40a2a79b7740744a62,68ac55d1e22b2d819c839dd1,68ac49e7f5750fd7a623e599,Sound A,1139,3,comprehension
1670,red,27,,Sound B,Higher degree,unpleasant,206416,1756124838450,1756124632034,male,Englush,conjunctive,666f2a40a2a79b7740744a62,68ac55d1e22b2d819c839dd1,68ac49e7f5750fd7a623e599,Sound A,712,4,comprehension
1670,red,27,,only the islanders know,Higher degree,unpleasant,206416,1756124838450,1756124632034,male,Englush,conjunctive,666f2a40a2a79b7740744a62,68ac55d1e22b2d819c839dd1,68ac49e7f5750fd7a623e599,90% for blue marbles and 10% for red marbles,8068,1,comprehension-2
1670,red,27,,FALSE,Higher degree,unpleasant,206416,1756124838450,1756124632034,male,Englush,conjunctive,666f2a40a2a79b7740744a62,68ac55d1e22b2d819c839dd1,68ac49e7f5750fd7a623e599,FALSE,2986,2,comprehension-2
1670,red,27,,NA,Higher degree,unpleasant,206416,1756124838450,1756124632034,male,Englush,conjunctive,666f2a40a2a79b7740744a62,68ac55d1e22b2d819c839dd1,68ac49e7f5750fd7a623e599,7,40464,1,critical
1617,blue,62,,Sound A,Graduated High-school,neutral,176918,1756124603494,1756124426576,female,English,conjunctive,6637b21240220c2517fffa1a,68ac54f6a282885220032bec,68ac49e7f5750fd7a623e599,Sound A,8681,1,comprehension
1617,blue,62,,Sound B,Graduated High-school,neutral,176918,1756124603494,1756124426576,female,English,conjunctive,6637b21240220c2517fffa1a,68ac54f6a282885220032bec,68ac49e7f5750fd7a623e599,Sound B,2751,2,comprehension
1617,blue,62,,Sound B,Graduated High-school,neutral,176918,1756124603494,1756124426576,female,English,conjunctive,6637b21240220c2517fffa1a,68ac54f6a282885220032bec,68ac49e7f5750fd7a623e599,Sound B,1932,3,comprehension
1617,blue,62,,Sound B,Graduated High-school,neutral,176918,1756124603494,1756124426576,female,English,conjunctive,6637b21240220c2517fffa1a,68ac54f6a282885220032bec,68ac49e7f5750fd7a623e599,Sound B,4134,4,comprehension
1617,blue,62,,only the islanders know,Graduated High-school,neutral,176918,1756124603494,1756124426576,female,English,conjunctive,6637b21240220c2517fffa1a,68ac54f6a282885220032bec,68ac49e7f5750fd7a623e599,only the islanders know,16182,1,comprehension-2
1617,blue,62,,FALSE,Graduated High-school,neutral,176918,1756124603494,1756124426576,female,English,conjunctive,6637b21240220c2517fffa1a,68ac54f6a282885220032bec,68ac49e7f5750fd7a623e599,FALSE,5768,2,comprehension-2
1617,blue,62,,NA,Graduated High-school,neutral,176918,1756124603494,1756124426576,female,English,conjunctive,6637b21240220c2517fffa1a,68ac54f6a282885220032bec,68ac49e7f5750fd7a623e599,4,30750,1,critical
1618,red,30,,Sound A,Higher degree,pleasant,119241,1756124606210,1756124486969,female,english,conjunctive,66acf11330b6066306ad61d4,68ac5542586a6ab36c45ce72,68ac49e7f5750fd7a623e599,Sound A,7332,1,comprehension
1618,red,30,,Sound B,Higher degree,pleasant,119241,1756124606210,1756124486969,female,english,conjunctive,66acf11330b6066306ad61d4,68ac5542586a6ab36c45ce72,68ac49e7f5750fd7a623e599,Sound B,1139,2,comprehension
1618,red,30,,Sound B,Higher degree,pleasant,119241,1756124606210,1756124486969,female,english,conjunctive,66acf11330b6066306ad61d4,68ac5542586a6ab36c45ce72,68ac49e7f5750fd7a623e599,Sound B,1047,3,comprehension
1618,red,30,,Sound B,Higher degree,pleasant,119241,1756124606210,1756124486969,female,english,conjunctive,66acf11330b6066306ad61d4,68ac5542586a6ab36c45ce72,68ac49e7f5750fd7a623e599,Sound B,1020,4,comprehension
1618,red,30,,only the islanders know,Higher degree,pleasant,119241,1756124606210,1756124486969,female,english,conjunctive,66acf11330b6066306ad61d4,68ac5542586a6ab36c45ce72,68ac49e7f5750fd7a623e599,90% for blue marbles and 10% for red marbles,5140,1,comprehension-2
1618,red,30,,FALSE,Higher degree,pleasant,119241,1756124606210,1756124486969,female,english,conjunctive,66acf11330b6066306ad61d4,68ac5542586a6ab36c45ce72,68ac49e7f5750fd7a623e599,FALSE,2608,2,comprehension-2
1618,red,30,,NA,Higher degree,pleasant,119241,1756124606210,1756124486969,female,english,conjunctive,66acf11330b6066306ad61d4,68ac5542586a6ab36c45ce72,68ac49e7f5750fd7a623e599,3,24325,1,critical
1629,blue,30,,Sound A,Higher degree,neutral,35050,1756124660345,1756124625295,female,english,conjunctive,66acf11330b6066306ad61d4,68ac5542586a6ab36c45ce72,68ac49e7f5750fd7a623e599,Sound A,1157,1,comprehension
1629,blue,30,,Sound B,Higher degree,neutral,35050,1756124660345,1756124625295,female,english,conjunctive,66acf11330b6066306ad61d4,68ac5542586a6ab36c45ce72,68ac49e7f5750fd7a623e599,Sound B,424,2,comprehension
1629,blue,30,,Sound B,Higher degree,neutral,35050,1756124660345,1756124625295,female,english,conjunctive,66acf11330b6066306ad61d4,68ac5542586a6ab36c45ce72,68ac49e7f5750fd7a623e599,Sound B,702,3,comprehension
1629,blue,30,,Sound B,Higher degree,neutral,35050,1756124660345,1756124625295,female,english,conjunctive,66acf11330b6066306ad61d4,68ac5542586a6ab36c45ce72,68ac49e7f5750fd7a623e599,Sound B,638,4,comprehension
1629,blue,30,,only the islanders know,Higher degree,neutral,35050,1756124660345,1756124625295,female,english,conjunctive,66acf11330b6066306ad61d4,68ac5542586a6ab36c45ce72,68ac49e7f5750fd7a623e599,90% for blue marbles and 10% for red marbles,1024,1,comprehension-2
1629,blue,30,,FALSE,Higher degree,neutral,35050,1756124660345,1756124625295,female,english,conjunctive,66acf11330b6066306ad61d4,68ac5542586a6ab36c45ce72,68ac49e7f5750fd7a623e599,FALSE,2370,2,comprehension-2
1629,blue,30,,NA,Higher degree,neutral,35050,1756124660345,1756124625295,female,english,conjunctive,66acf11330b6066306ad61d4,68ac5542586a6ab36c45ce72,68ac49e7f5750fd7a623e599,3,4830,1,critical
1631,red,54,,Sound A,Graduated College,neutral,308894,1756124665576,1756124356682,male,English,conjunctive,54dfac92fdf99b4b6b6595d9,68ac54bf30702b9235fc9c4b,68ac49e7f5750fd7a623e599,Sound A,13104,1,comprehension
1631,red,54,,Sound B,Graduated College,neutral,308894,1756124665576,1756124356682,male,English,conjunctive,54dfac92fdf99b4b6b6595d9,68ac54bf30702b9235fc9c4b,68ac49e7f5750fd7a623e599,Sound B,8603,2,comprehension
1631,red,54,,Sound B,Graduated College,neutral,308894,1756124665576,1756124356682,male,English,conjunctive,54dfac92fdf99b4b6b6595d9,68ac54bf30702b9235fc9c4b,68ac49e7f5750fd7a623e599,Sound B,4877,3,comprehension
1631,red,54,,Sound B,Graduated College,neutral,308894,1756124665576,1756124356682,male,English,conjunctive,54dfac92fdf99b4b6b6595d9,68ac54bf30702b9235fc9c4b,68ac49e7f5750fd7a623e599,Sound B,1108,4,comprehension
1631,red,54,,only the islanders know,Graduated College,neutral,308894,1756124665576,1756124356682,male,English,conjunctive,54dfac92fdf99b4b6b6595d9,68ac54bf30702b9235fc9c4b,68ac49e7f5750fd7a623e599,only the islanders know,25624,1,comprehension-2
1631,red,54,,FALSE,Graduated College,neutral,308894,1756124665576,1756124356682,male,English,conjunctive,54dfac92fdf99b4b6b6595d9,68ac54bf30702b9235fc9c4b,68ac49e7f5750fd7a623e599,FALSE,5036,2,comprehension-2
1631,red,54,,NA,Graduated College,neutral,308894,1756124665576,1756124356682,male,English,conjunctive,54dfac92fdf99b4b6b6595d9,68ac54bf30702b9235fc9c4b,68ac49e7f5750fd7a623e599,6,55464,1,critical
1634,blue,43,,Sound A,Higher degree,unpleasant,204482,1756124676253,1756124471771,male,English,disjunctive,5bb756696322c5000159756c,68ac55311ccadc609e7cccf9,68ac49e7f5750fd7a623e599,Sound A,1849,1,comprehension
1634,blue,43,,Sound A,Higher degree,unpleasant,204482,1756124676253,1756124471771,male,English,disjunctive,5bb756696322c5000159756c,68ac55311ccadc609e7cccf9,68ac49e7f5750fd7a623e599,Sound A,952,2,comprehension
1634,blue,43,,Sound A,Higher degree,unpleasant,204482,1756124676253,1756124471771,male,English,disjunctive,5bb756696322c5000159756c,68ac55311ccadc609e7cccf9,68ac49e7f5750fd7a623e599,Sound B,998,3,comprehension
1634,blue,43,,Sound B,Higher degree,unpleasant,204482,1756124676253,1756124471771,male,English,disjunctive,5bb756696322c5000159756c,68ac55311ccadc609e7cccf9,68ac49e7f5750fd7a623e599,Sound B,929,4,comprehension
1634,blue,43,,only the islanders know,Higher degree,unpleasant,204482,1756124676253,1756124471771,male,English,disjunctive,5bb756696322c5000159756c,68ac55311ccadc609e7cccf9,68ac49e7f5750fd7a623e599,only the islanders know,18560,1,comprehension-2
1634,blue,43,,FALSE,Higher degree,unpleasant,204482,1756124676253,1756124471771,male,English,disjunctive,5bb756696322c5000159756c,68ac55311ccadc609e7cccf9,68ac49e7f5750fd7a623e599,FALSE,10472,2,comprehension-2
1634,blue,43,,NA,Higher degree,unpleasant,204482,1756124676253,1756124471771,male,English,disjunctive,5bb756696322c5000159756c,68ac55311ccadc609e7cccf9,68ac49e7f5750fd7a623e599,6,53256,1,critical
1656,blue,52,,Sound A,Graduated College,pleasant,223412,1756124768793,1756124545381,male,english,disjunctive,677b8e386966144d94556597,68ac5574a2ed3c5e6502c39b,68ac49e7f5750fd7a623e599,Sound A,6222,1,comprehension
1656,blue,52,,Sound A,Graduated College,pleasant,223412,1756124768793,1756124545381,male,english,disjunctive,677b8e386966144d94556597,68ac5574a2ed3c5e6502c39b,68ac49e7f5750fd7a623e599,Sound A,4930,2,comprehension
1656,blue,52,,Sound A,Graduated College,pleasant,223412,1756124768793,1756124545381,male,english,disjunctive,677b8e386966144d94556597,68ac5574a2ed3c5e6502c39b,68ac49e7f5750fd7a623e599,Sound A,2121,3,comprehension
1656,blue,52,,Sound B,Graduated College,pleasant,223412,1756124768793,1756124545381,male,english,disjunctive,677b8e386966144d94556597,68ac5574a2ed3c5e6502c39b,68ac49e7f5750fd7a623e599,Sound B,1583,4,comprehension
1656,blue,52,,only the islanders know,Graduated College,pleasant,223412,1756124768793,1756124545381,male,english,disjunctive,677b8e386966144d94556597,68ac5574a2ed3c5e6502c39b,68ac49e7f5750fd7a623e599,only the islanders know,32947,1,comprehension-2
1656,blue,52,,FALSE,Graduated College,pleasant,223412,1756124768793,1756124545381,male,english,disjunctive,677b8e386966144d94556597,68ac5574a2ed3c5e6502c39b,68ac49e7f5750fd7a623e599,FALSE,4917,2,comprehension-2
1656,blue,52,,NA,Graduated College,pleasant,223412,1756124768793,1756124545381,male,english,disjunctive,677b8e386966144d94556597,68ac5574a2ed3c5e6502c39b,68ac49e7f5750fd7a623e599,6,30422,1,critical
1685,blue,27,,Sound A,Higher degree,neutral,26219,1756124884350,1756124858131,male,English,disjunctive,666f2a40a2a79b7740744a62,68ac55d1e22b2d819c839dd1,68ac49e7f5750fd7a623e599,Sound A,879,1,comprehension
1685,blue,27,,Sound A,Higher degree,neutral,26219,1756124884350,1756124858131,male,English,disjunctive,666f2a40a2a79b7740744a62,68ac55d1e22b2d819c839dd1,68ac49e7f5750fd7a623e599,Sound A,533,2,comprehension
1685,blue,27,,Sound A,Higher degree,neutral,26219,1756124884350,1756124858131,male,English,disjunctive,666f2a40a2a79b7740744a62,68ac55d1e22b2d819c839dd1,68ac49e7f5750fd7a623e599,Sound A,433,3,comprehension
1685,blue,27,,Sound B,Higher degree,neutral,26219,1756124884350,1756124858131,male,English,disjunctive,666f2a40a2a79b7740744a62,68ac55d1e22b2d819c839dd1,68ac49e7f5750fd7a623e599,Sound A,412,4,comprehension
1685,blue,27,,only the islanders know,Higher degree,neutral,26219,1756124884350,1756124858131,male,English,disjunctive,666f2a40a2a79b7740744a62,68ac55d1e22b2d819c839dd1,68ac49e7f5750fd7a623e599,90% for blue marbles and 10% for red marbles,1053,1,comprehension-2
1685,blue,27,,FALSE,Higher degree,neutral,26219,1756124884350,1756124858131,male,English,disjunctive,666f2a40a2a79b7740744a62,68ac55d1e22b2d819c839dd1,68ac49e7f5750fd7a623e599,FALSE,2676,2,comprehension-2
1685,blue,27,,NA,Higher degree,neutral,26219,1756124884350,1756124858131,male,English,disjunctive,666f2a40a2a79b7740744a62,68ac55d1e22b2d819c839dd1,68ac49e7f5750fd7a623e599,7,2801,1,critical
1623,blue,56,,Sound A,Graduated College,neutral,290263,1756124624783,1756124334520,male,,conjunctive,6266b0409582f553a3e10d9a,68ac549cadcda850ee6aaa45,68ac49e7f5750fd7a623e599,Sound A,25987,1,comprehension
1623,blue,56,,Sound B,Graduated College,neutral,290263,1756124624783,1756124334520,male,,conjunctive,6266b0409582f553a3e10d9a,68ac549cadcda850ee6aaa45,68ac49e7f5750fd7a623e599,Sound B,16994,2,comprehension
1623,blue,56,,Sound B,Graduated College,neutral,290263,1756124624783,1756124334520,male,,conjunctive,6266b0409582f553a3e10d9a,68ac549cadcda850ee6aaa45,68ac49e7f5750fd7a623e599,Sound B,7720,3,comprehension
1623,blue,56,,Sound B,Graduated College,neutral,290263,1756124624783,1756124334520,male,,conjunctive,6266b0409582f553a3e10d9a,68ac549cadcda850ee6aaa45,68ac49e7f5750fd7a623e599,Sound B,4617,4,comprehension
1623,blue,56,,only the islanders know,Graduated College,neutral,290263,1756124624783,1756124334520,male,,conjunctive,6266b0409582f553a3e10d9a,68ac549cadcda850ee6aaa45,68ac49e7f5750fd7a623e599,only the islanders know,42132,1,comprehension-2
1623,blue,56,,FALSE,Graduated College,neutral,290263,1756124624783,1756124334520,male,,conjunctive,6266b0409582f553a3e10d9a,68ac549cadcda850ee6aaa45,68ac49e7f5750fd7a623e599,FALSE,5736,2,comprehension-2
1623,blue,56,,NA,Graduated College,neutral,290263,1756124624783,1756124334520,male,,conjunctive,6266b0409582f553a3e10d9a,68ac549cadcda850ee6aaa45,68ac49e7f5750fd7a623e599,5,72349,1,critical
1628,blue,63,,Sound A,Graduated College,unpleasant,403924,1756124660397,1756124256473,female,English,disjunctive,6671e82cc1fa43aced1c799a,68ac5458d206d0f7cf6d24f0,68ac49e7f5750fd7a623e599,Sound A,19022,1,comprehension
1628,blue,63,,Sound A,Graduated College,unpleasant,403924,1756124660397,1756124256473,female,English,disjunctive,6671e82cc1fa43aced1c799a,68ac5458d206d0f7cf6d24f0,68ac49e7f5750fd7a623e599,Sound A,17827,2,comprehension
1628,blue,63,,Sound A,Graduated College,unpleasant,403924,1756124660397,1756124256473,female,English,disjunctive,6671e82cc1fa43aced1c799a,68ac5458d206d0f7cf6d24f0,68ac49e7f5750fd7a623e599,Sound A,15296,3,comprehension
1628,blue,63,,Sound B,Graduated College,unpleasant,403924,1756124660397,1756124256473,female,English,disjunctive,6671e82cc1fa43aced1c799a,68ac5458d206d0f7cf6d24f0,68ac49e7f5750fd7a623e599,Sound B,3851,4,comprehension
1628,blue,63,,only the islanders know,Graduated College,unpleasant,403924,1756124660397,1756124256473,female,English,disjunctive,6671e82cc1fa43aced1c799a,68ac5458d206d0f7cf6d24f0,68ac49e7f5750fd7a623e599,90% for blue marbles and 10% for red marbles,18790,1,comprehension-2
1628,blue,63,,FALSE,Graduated College,unpleasant,403924,1756124660397,1756124256473,female,English,disjunctive,6671e82cc1fa43aced1c799a,68ac5458d206d0f7cf6d24f0,68ac49e7f5750fd7a623e599,FALSE,5780,2,comprehension-2
1628,blue,63,,NA,Graduated College,unpleasant,403924,1756124660397,1756124256473,female,English,disjunctive,6671e82cc1fa43aced1c799a,68ac5458d206d0f7cf6d24f0,68ac49e7f5750fd7a623e599,5,172770,1,critical
1638,red,30,,Sound A,Higher degree,pleasant,497874,1756124687510,1756124189636,female,english,conjunctive,6702f60844f21087e0840e3d,68ac540d6c351915d17a3e07,68ac49e7f5750fd7a623e599,Sound A,98042,1,comprehension
1638,red,30,,Sound B,Higher degree,pleasant,497874,1756124687510,1756124189636,female,english,conjunctive,6702f60844f21087e0840e3d,68ac540d6c351915d17a3e07,68ac49e7f5750fd7a623e599,Sound B,4431,2,comprehension
1638,red,30,,Sound B,Higher degree,pleasant,497874,1756124687510,1756124189636,female,english,conjunctive,6702f60844f21087e0840e3d,68ac540d6c351915d17a3e07,68ac49e7f5750fd7a623e599,Sound B,5778,3,comprehension
1638,red,30,,Sound B,Higher degree,pleasant,497874,1756124687510,1756124189636,female,english,conjunctive,6702f60844f21087e0840e3d,68ac540d6c351915d17a3e07,68ac49e7f5750fd7a623e599,Sound B,7203,4,comprehension
1638,red,30,,only the islanders know,Higher degree,pleasant,497874,1756124687510,1756124189636,female,english,conjunctive,6702f60844f21087e0840e3d,68ac540d6c351915d17a3e07,68ac49e7f5750fd7a623e599,90% for blue marbles and 10% for red marbles,34845,1,comprehension-2
1638,red,30,,FALSE,Higher degree,pleasant,497874,1756124687510,1756124189636,female,english,conjunctive,6702f60844f21087e0840e3d,68ac540d6c351915d17a3e07,68ac49e7f5750fd7a623e599,FALSE,6115,2,comprehension-2
1638,red,30,,NA,Higher degree,pleasant,497874,1756124687510,1756124189636,female,english,conjunctive,6702f60844f21087e0840e3d,68ac540d6c351915d17a3e07,68ac49e7f5750fd7a623e599,6,74970,1,critical
1640,red,32,,Sound A,Graduated High-school,neutral,234271,1756124694006,1756124459735,male,English,conjunctive,66a5575504d153981d0f9261,68ac551d2a98af03153137a4,68ac49e7f5750fd7a623e599,Sound A,11248,1,comprehension
1640,red,32,,Sound B,Graduated High-school,neutral,234271,1756124694006,1756124459735,male,English,conjunctive,66a5575504d153981d0f9261,68ac551d2a98af03153137a4,68ac49e7f5750fd7a623e599,Sound B,4212,2,comprehension
1640,red,32,,Sound B,Graduated High-school,neutral,234271,1756124694006,1756124459735,male,English,conjunctive,66a5575504d153981d0f9261,68ac551d2a98af03153137a4,68ac49e7f5750fd7a623e599,Sound B,1540,3,comprehension
1640,red,32,,Sound B,Graduated High-school,neutral,234271,1756124694006,1756124459735,male,English,conjunctive,66a5575504d153981d0f9261,68ac551d2a98af03153137a4,68ac49e7f5750fd7a623e599,Sound B,888,4,comprehension
1640,red,32,,only the islanders know,Graduated High-school,neutral,234271,1756124694006,1756124459735,male,English,conjunctive,66a5575504d153981d0f9261,68ac551d2a98af03153137a4,68ac49e7f5750fd7a623e599,only the islanders know,13379,1,comprehension-2
1640,red,32,,FALSE,Graduated High-school,neutral,234271,1756124694006,1756124459735,male,English,conjunctive,66a5575504d153981d0f9261,68ac551d2a98af03153137a4,68ac49e7f5750fd7a623e599,FALSE,2500,2,comprehension-2
1640,red,32,,NA,Graduated High-school,neutral,234271,1756124694006,1756124459735,male,English,conjunctive,66a5575504d153981d0f9261,68ac551d2a98af03153137a4,68ac49e7f5750fd7a623e599,7,60666,1,critical
1661,red,54,,Sound A,Graduated High-school,unpleasant,320440,1756124799831,1756124479391,male,English,disjunctive,5a6725d4c0d836000107f6e7,68ac5537fe37cc005d3561c4,68ac49e7f5750fd7a623e599,Sound A,22395,1,comprehension
1661,red,54,,Sound A,Graduated High-school,unpleasant,320440,1756124799831,1756124479391,male,English,disjunctive,5a6725d4c0d836000107f6e7,68ac5537fe37cc005d3561c4,68ac49e7f5750fd7a623e599,Sound A,17946,2,comprehension
1661,red,54,,Sound A,Graduated High-school,unpleasant,320440,1756124799831,1756124479391,male,English,disjunctive,5a6725d4c0d836000107f6e7,68ac5537fe37cc005d3561c4,68ac49e7f5750fd7a623e599,Sound B,4994,3,comprehension
1661,red,54,,Sound B,Graduated High-school,unpleasant,320440,1756124799831,1756124479391,male,English,disjunctive,5a6725d4c0d836000107f6e7,68ac5537fe37cc005d3561c4,68ac49e7f5750fd7a623e599,Sound B,14170,4,comprehension
1661,red,54,,only the islanders know,Graduated High-school,unpleasant,320440,1756124799831,1756124479391,male,English,disjunctive,5a6725d4c0d836000107f6e7,68ac5537fe37cc005d3561c4,68ac49e7f5750fd7a623e599,90% for blue marbles and 10% for red marbles,38493,1,comprehension-2
1661,red,54,,FALSE,Graduated High-school,unpleasant,320440,1756124799831,1756124479391,male,English,disjunctive,5a6725d4c0d836000107f6e7,68ac5537fe37cc005d3561c4,68ac49e7f5750fd7a623e599,FALSE,5861,2,comprehension-2
1661,red,54,,NA,Graduated High-school,unpleasant,320440,1756124799831,1756124479391,male,English,disjunctive,5a6725d4c0d836000107f6e7,68ac5537fe37cc005d3561c4,68ac49e7f5750fd7a623e599,6,81061,1,critical
1680,blue,66,,Sound A,Higher degree,neutral,221278,1756124864314,1756124643036,male,English,disjunctive,5d4310bbd8e961001b825ca4,68ac55d748582b282dc11de3,68ac49e7f5750fd7a623e599,Sound A,9686,1,comprehension
1680,blue,66,,Sound A,Higher degree,neutral,221278,1756124864314,1756124643036,male,English,disjunctive,5d4310bbd8e961001b825ca4,68ac55d748582b282dc11de3,68ac49e7f5750fd7a623e599,Sound A,3279,2,comprehension
1680,blue,66,,Sound A,Higher degree,neutral,221278,1756124864314,1756124643036,male,English,disjunctive,5d4310bbd8e961001b825ca4,68ac55d748582b282dc11de3,68ac49e7f5750fd7a623e599,Sound A,2625,3,comprehension
1680,blue,66,,Sound B,Higher degree,neutral,221278,1756124864314,1756124643036,male,English,disjunctive,5d4310bbd8e961001b825ca4,68ac55d748582b282dc11de3,68ac49e7f5750fd7a623e599,Sound B,2368,4,comprehension
1680,blue,66,,only the islanders know,Higher degree,neutral,221278,1756124864314,1756124643036,male,English,disjunctive,5d4310bbd8e961001b825ca4,68ac55d748582b282dc11de3,68ac49e7f5750fd7a623e599,only the islanders know,11078,1,comprehension-2
1680,blue,66,,FALSE,Higher degree,neutral,221278,1756124864314,1756124643036,male,English,disjunctive,5d4310bbd8e961001b825ca4,68ac55d748582b282dc11de3,68ac49e7f5750fd7a623e599,FALSE,4950,2,comprehension-2
1680,blue,66,,NA,Higher degree,neutral,221278,1756124864314,1756124643036,male,English,disjunctive,5d4310bbd8e961001b825ca4,68ac55d748582b282dc11de3,68ac49e7f5750fd7a623e599,4,42368,1,critical
1625,blue,57,,Sound A,Graduated College,neutral,226568,1756124638049,1756124411481,female,english,conjunctive,66a3e355362c7697f4d44d46,68ac54ee3c132344ad69c756,68ac49e7f5750fd7a623e599,Sound A,10558,1,comprehension
1625,blue,57,,Sound B,Graduated College,neutral,226568,1756124638049,1756124411481,female,english,conjunctive,66a3e355362c7697f4d44d46,68ac54ee3c132344ad69c756,68ac49e7f5750fd7a623e599,Sound A,1938,2,comprehension
1625,blue,57,,Sound B,Graduated College,neutral,226568,1756124638049,1756124411481,female,english,conjunctive,66a3e355362c7697f4d44d46,68ac54ee3c132344ad69c756,68ac49e7f5750fd7a623e599,Sound A,1302,3,comprehension
1625,blue,57,,Sound B,Graduated College,neutral,226568,1756124638049,1756124411481,female,english,conjunctive,66a3e355362c7697f4d44d46,68ac54ee3c132344ad69c756,68ac49e7f5750fd7a623e599,Sound B,7624,4,comprehension
1625,blue,57,,only the islanders know,Graduated College,neutral,226568,1756124638049,1756124411481,female,english,conjunctive,66a3e355362c7697f4d44d46,68ac54ee3c132344ad69c756,68ac49e7f5750fd7a623e599,90% for blue marbles and 10% for red marbles,20822,1,comprehension-2
1625,blue,57,,FALSE,Graduated College,neutral,226568,1756124638049,1756124411481,female,english,conjunctive,66a3e355362c7697f4d44d46,68ac54ee3c132344ad69c756,68ac49e7f5750fd7a623e599,FALSE,7843,2,comprehension-2
1625,blue,57,,NA,Graduated College,neutral,226568,1756124638049,1756124411481,female,english,conjunctive,66a3e355362c7697f4d44d46,68ac54ee3c132344ad69c756,68ac49e7f5750fd7a623e599,7,51066,1,critical
1674,blue,35,,Sound A,Graduated College,pleasant,208455,1756124888484,1756124680029,male,English,conjunctive,67665f7b0329bd3e30515ad2,68ac55d53e4d39f6d89f5ac2,68ac49e7f5750fd7a623e599,Sound A,5225,1,comprehension
1674,blue,35,,Sound B,Graduated College,pleasant,208455,1756124888484,1756124680029,male,English,conjunctive,67665f7b0329bd3e30515ad2,68ac55d53e4d39f6d89f5ac2,68ac49e7f5750fd7a623e599,Sound B,3364,2,comprehension
1674,blue,35,,Sound B,Graduated College,pleasant,208455,1756124888484,1756124680029,male,English,conjunctive,67665f7b0329bd3e30515ad2,68ac55d53e4d39f6d89f5ac2,68ac49e7f5750fd7a623e599,Sound B,1831,3,comprehension
1674,blue,35,,Sound B,Graduated College,pleasant,208455,1756124888484,1756124680029,male,English,conjunctive,67665f7b0329bd3e30515ad2,68ac55d53e4d39f6d89f5ac2,68ac49e7f5750fd7a623e599,Sound B,1196,4,comprehension
1674,blue,35,,only the islanders know,Graduated College,pleasant,208455,1756124888484,1756124680029,male,English,conjunctive,67665f7b0329bd3e30515ad2,68ac55d53e4d39f6d89f5ac2,68ac49e7f5750fd7a623e599,90% for blue marbles and 10% for red marbles,38040,1,comprehension-2
1674,blue,35,,FALSE,Graduated College,pleasant,208455,1756124888484,1756124680029,male,English,conjunctive,67665f7b0329bd3e30515ad2,68ac55d53e4d39f6d89f5ac2,68ac49e7f5750fd7a623e599,FALSE,4988,2,comprehension-2
1674,blue,35,,NA,Graduated College,pleasant,208455,1756124888484,1756124680029,male,English,conjunctive,67665f7b0329bd3e30515ad2,68ac55d53e4d39f6d89f5ac2,68ac49e7f5750fd7a623e599,6,31371,1,critical
1633,red,,,Sound A,Higher degree,unpleasant,465830,1756124676035,1756124210205,,English,disjunctive,668e8a35a021a69f5b0826b9,68ac542aafef05a0908e0b0b,68ac49e7f5750fd7a623e599,Sound A,18883,1,comprehension
1633,red,,,Sound A,Higher degree,unpleasant,465830,1756124676035,1756124210205,,English,disjunctive,668e8a35a021a69f5b0826b9,68ac542aafef05a0908e0b0b,68ac49e7f5750fd7a623e599,Sound A,102799,2,comprehension
1633,red,,,Sound A,Higher degree,unpleasant,465830,1756124676035,1756124210205,,English,disjunctive,668e8a35a021a69f5b0826b9,68ac542aafef05a0908e0b0b,68ac49e7f5750fd7a623e599,Sound A,11732,3,comprehension
1633,red,,,Sound B,Higher degree,unpleasant,465830,1756124676035,1756124210205,,English,disjunctive,668e8a35a021a69f5b0826b9,68ac542aafef05a0908e0b0b,68ac49e7f5750fd7a623e599,Sound B,4118,4,comprehension
1633,red,,,only the islanders know,Higher degree,unpleasant,465830,1756124676035,1756124210205,,English,disjunctive,668e8a35a021a69f5b0826b9,68ac542aafef05a0908e0b0b,68ac49e7f5750fd7a623e599,90% for blue marbles and 10% for red marbles,33664,1,comprehension-2
1633,red,,,FALSE,Higher degree,unpleasant,465830,1756124676035,1756124210205,,English,disjunctive,668e8a35a021a69f5b0826b9,68ac542aafef05a0908e0b0b,68ac49e7f5750fd7a623e599,FALSE,29761,2,comprehension-2
1633,red,,,NA,Higher degree,unpleasant,465830,1756124676035,1756124210205,,English,disjunctive,668e8a35a021a69f5b0826b9,68ac542aafef05a0908e0b0b,68ac49e7f5750fd7a623e599,6,105241,1,critical
1637,blue,28,,Sound A,Graduated High-school,neutral,260987,1756124684481,1756124423494,male,English,conjunctive,5c478dae685da800014c8119,68ac54f8466204e82efe6869,68ac49e7f5750fd7a623e599,Sound B,19494,1,comprehension
1637,blue,28,,Sound B,Graduated High-school,neutral,260987,1756124684481,1756124423494,male,English,conjunctive,5c478dae685da800014c8119,68ac54f8466204e82efe6869,68ac49e7f5750fd7a623e599,Sound A,5782,2,comprehension
1637,blue,28,,Sound B,Graduated High-school,neutral,260987,1756124684481,1756124423494,male,English,conjunctive,5c478dae685da800014c8119,68ac54f8466204e82efe6869,68ac49e7f5750fd7a623e599,Sound B,3590,3,comprehension
1637,blue,28,,Sound B,Graduated High-school,neutral,260987,1756124684481,1756124423494,male,English,conjunctive,5c478dae685da800014c8119,68ac54f8466204e82efe6869,68ac49e7f5750fd7a623e599,Sound A,4519,4,comprehension
1637,blue,28,,only the islanders know,Graduated High-school,neutral,260987,1756124684481,1756124423494,male,English,conjunctive,5c478dae685da800014c8119,68ac54f8466204e82efe6869,68ac49e7f5750fd7a623e599,only the islanders know,8297,1,comprehension-2
1637,blue,28,,FALSE,Graduated High-school,neutral,260987,1756124684481,1756124423494,male,English,conjunctive,5c478dae685da800014c8119,68ac54f8466204e82efe6869,68ac49e7f5750fd7a623e599,FALSE,5078,2,comprehension-2
1637,blue,28,,NA,Graduated High-school,neutral,260987,1756124684481,1756124423494,male,English,conjunctive,5c478dae685da800014c8119,68ac54f8466204e82efe6869,68ac49e7f5750fd7a623e599,6,69065,1,critical
1654,blue,46,,Sound A,Graduated College,pleasant,229672,1756124764520,1756124534848,male,English,disjunctive,5657688f995911000a482d40,68ac5508d851cc7fe9286fac,68ac49e7f5750fd7a623e599,Sound A,8448,1,comprehension
1654,blue,46,,Sound A,Graduated College,pleasant,229672,1756124764520,1756124534848,male,English,disjunctive,5657688f995911000a482d40,68ac5508d851cc7fe9286fac,68ac49e7f5750fd7a623e599,Sound A,21512,2,comprehension
1654,blue,46,,Sound A,Graduated College,pleasant,229672,1756124764520,1756124534848,male,English,disjunctive,5657688f995911000a482d40,68ac5508d851cc7fe9286fac,68ac49e7f5750fd7a623e599,Sound A,5920,3,comprehension
1654,blue,46,,Sound B,Graduated College,pleasant,229672,1756124764520,1756124534848,male,English,disjunctive,5657688f995911000a482d40,68ac5508d851cc7fe9286fac,68ac49e7f5750fd7a623e599,Sound B,3560,4,comprehension
1654,blue,46,,only the islanders know,Graduated College,pleasant,229672,1756124764520,1756124534848,male,English,disjunctive,5657688f995911000a482d40,68ac5508d851cc7fe9286fac,68ac49e7f5750fd7a623e599,only the islanders know,5784,1,comprehension-2
1654,blue,46,,FALSE,Graduated College,pleasant,229672,1756124764520,1756124534848,male,English,disjunctive,5657688f995911000a482d40,68ac5508d851cc7fe9286fac,68ac49e7f5750fd7a623e599,FALSE,2511,2,comprehension-2
1654,blue,46,,NA,Graduated College,pleasant,229672,1756124764520,1756124534848,male,English,disjunctive,5657688f995911000a482d40,68ac5508d851cc7fe9286fac,68ac49e7f5750fd7a623e599,5,85889,1,critical
1665,red,53,,Sound A,Graduated College,pleasant,401037,1756124819636,1756124418599,male,English,disjunctive,60a265fa5eb65e4e5caf297c,68ac54fb30fad01f94f5c859,68ac49e7f5750fd7a623e599,Sound A,23640,1,comprehension
1665,red,53,,Sound A,Graduated College,pleasant,401037,1756124819636,1756124418599,male,English,disjunctive,60a265fa5eb65e4e5caf297c,68ac54fb30fad01f94f5c859,68ac49e7f5750fd7a623e599,Sound A,7797,2,comprehension
1665,red,53,,Sound A,Graduated College,pleasant,401037,1756124819636,1756124418599,male,English,disjunctive,60a265fa5eb65e4e5caf297c,68ac54fb30fad01f94f5c859,68ac49e7f5750fd7a623e599,Sound A,4488,3,comprehension
1665,red,53,,Sound B,Graduated College,pleasant,401037,1756124819636,1756124418599,male,English,disjunctive,60a265fa5eb65e4e5caf297c,68ac54fb30fad01f94f5c859,68ac49e7f5750fd7a623e599,Sound B,2444,4,comprehension
1665,red,53,,only the islanders know,Graduated College,pleasant,401037,1756124819636,1756124418599,male,English,disjunctive,60a265fa5eb65e4e5caf297c,68ac54fb30fad01f94f5c859,68ac49e7f5750fd7a623e599,90% for blue marbles and 10% for red marbles,33008,1,comprehension-2
1665,red,53,,FALSE,Graduated College,pleasant,401037,1756124819636,1756124418599,male,English,disjunctive,60a265fa5eb65e4e5caf297c,68ac54fb30fad01f94f5c859,68ac49e7f5750fd7a623e599,FALSE,10307,2,comprehension-2
1665,red,53,,NA,Graduated College,pleasant,401037,1756124819636,1756124418599,male,English,disjunctive,60a265fa5eb65e4e5caf297c,68ac54fb30fad01f94f5c859,68ac49e7f5750fd7a623e599,3,64008,1,critical
1686,red,45,,Sound A,Graduated College,neutral,411746,1756124889726,1756124477980,male,english,conjunctive,66cfab152c56aa0472529001,68ac553669bb434264fc2c84,68ac49e7f5750fd7a623e599,Sound A,20879,1,comprehension
1686,red,45,,Sound B,Graduated College,neutral,411746,1756124889726,1756124477980,male,english,conjunctive,66cfab152c56aa0472529001,68ac553669bb434264fc2c84,68ac49e7f5750fd7a623e599,Sound B,41082,2,comprehension
1686,red,45,,Sound B,Graduated College,neutral,411746,1756124889726,1756124477980,male,english,conjunctive,66cfab152c56aa0472529001,68ac553669bb434264fc2c84,68ac49e7f5750fd7a623e599,Sound B,33350,3,comprehension
1686,red,45,,Sound B,Graduated College,neutral,411746,1756124889726,1756124477980,male,english,conjunctive,66cfab152c56aa0472529001,68ac553669bb434264fc2c84,68ac49e7f5750fd7a623e599,Sound B,9864,4,comprehension
1686,red,45,,only the islanders know,Graduated College,neutral,411746,1756124889726,1756124477980,male,english,conjunctive,66cfab152c56aa0472529001,68ac553669bb434264fc2c84,68ac49e7f5750fd7a623e599,only the islanders know,50841,1,comprehension-2
1686,red,45,,FALSE,Graduated College,neutral,411746,1756124889726,1756124477980,male,english,conjunctive,66cfab152c56aa0472529001,68ac553669bb434264fc2c84,68ac49e7f5750fd7a623e599,FALSE,20168,2,comprehension-2
1686,red,45,,NA,Graduated College,neutral,411746,1756124889726,1756124477980,male,english,conjunctive,66cfab152c56aa0472529001,68ac553669bb434264fc2c84,68ac49e7f5750fd7a623e599,7,75583,1,critical
1696,blue,29," lovely survey, thank you so much ",Sound A,Higher degree,pleasant,626194,1756124934618,1756124308424,female, english,conjunctive,604fa685e33606f9a0ee8189,68ac548b1d3ae564355632d6,68ac49e7f5750fd7a623e599,Sound A,17069,1,comprehension
1696,blue,29," lovely survey, thank you so much ",Sound B,Higher degree,pleasant,626194,1756124934618,1756124308424,female, english,conjunctive,604fa685e33606f9a0ee8189,68ac548b1d3ae564355632d6,68ac49e7f5750fd7a623e599,Sound B,3894,2,comprehension
1696,blue,29," lovely survey, thank you so much ",Sound B,Higher degree,pleasant,626194,1756124934618,1756124308424,female, english,conjunctive,604fa685e33606f9a0ee8189,68ac548b1d3ae564355632d6,68ac49e7f5750fd7a623e599,Sound B,8207,3,comprehension
1696,blue,29," lovely survey, thank you so much ",Sound B,Higher degree,pleasant,626194,1756124934618,1756124308424,female, english,conjunctive,604fa685e33606f9a0ee8189,68ac548b1d3ae564355632d6,68ac49e7f5750fd7a623e599,Sound B,2442,4,comprehension
1696,blue,29," lovely survey, thank you so much ",only the islanders know,Higher degree,pleasant,626194,1756124934618,1756124308424,female, english,conjunctive,604fa685e33606f9a0ee8189,68ac548b1d3ae564355632d6,68ac49e7f5750fd7a623e599,only the islanders know,13685,1,comprehension-2
1696,blue,29," lovely survey, thank you so much ",FALSE,Higher degree,pleasant,626194,1756124934618,1756124308424,female, english,conjunctive,604fa685e33606f9a0ee8189,68ac548b1d3ae564355632d6,68ac49e7f5750fd7a623e599,FALSE,3480,2,comprehension-2
1696,blue,29," lovely survey, thank you so much ",NA,Higher degree,pleasant,626194,1756124934618,1756124308424,female, english,conjunctive,604fa685e33606f9a0ee8189,68ac548b1d3ae564355632d6,68ac49e7f5750fd7a623e599,2,256653,1,critical
1702,red,23,,Sound A,Graduated College,unpleasant,563468,1756124948441,1756124384973,male,English,conjunctive,67252ccdf91cf97c0989172d,68ac549f82d9979575faad19,68ac49e7f5750fd7a623e599,Sound A,2929,1,comprehension
1702,red,23,,Sound B,Graduated College,unpleasant,563468,1756124948441,1756124384973,male,English,conjunctive,67252ccdf91cf97c0989172d,68ac549f82d9979575faad19,68ac49e7f5750fd7a623e599,Sound B,3504,2,comprehension
1702,red,23,,Sound B,Graduated College,unpleasant,563468,1756124948441,1756124384973,male,English,conjunctive,67252ccdf91cf97c0989172d,68ac549f82d9979575faad19,68ac49e7f5750fd7a623e599,Sound A,1216,3,comprehension
1702,red,23,,Sound B,Graduated College,unpleasant,563468,1756124948441,1756124384973,male,English,conjunctive,67252ccdf91cf97c0989172d,68ac549f82d9979575faad19,68ac49e7f5750fd7a623e599,Sound B,820,4,comprehension
1702,red,23,,only the islanders know,Graduated College,unpleasant,563468,1756124948441,1756124384973,male,English,conjunctive,67252ccdf91cf97c0989172d,68ac549f82d9979575faad19,68ac49e7f5750fd7a623e599,90% for blue marbles and 10% for red marbles,4241,1,comprehension-2
1702,red,23,,FALSE,Graduated College,unpleasant,563468,1756124948441,1756124384973,male,English,conjunctive,67252ccdf91cf97c0989172d,68ac549f82d9979575faad19,68ac49e7f5750fd7a623e599,FALSE,3431,2,comprehension-2
1702,red,23,,NA,Graduated College,unpleasant,563468,1756124948441,1756124384973,male,English,conjunctive,67252ccdf91cf97c0989172d,68ac549f82d9979575faad19,68ac49e7f5750fd7a623e599,1,9757,1,critical
1635,blue,25,,Sound A,Graduated College,unpleasant,241290,1756124685476,1756124444186,male,English,disjunctive,67179c4e867b679bd7ca1ee5,68ac5513942363d80aa12230,68ac49e7f5750fd7a623e599,Sound A,11108,1,comprehension
1635,blue,25,,Sound A,Graduated College,unpleasant,241290,1756124685476,1756124444186,male,English,disjunctive,67179c4e867b679bd7ca1ee5,68ac5513942363d80aa12230,68ac49e7f5750fd7a623e599,Sound A,1619,2,comprehension
1635,blue,25,,Sound A,Graduated College,unpleasant,241290,1756124685476,1756124444186,male,English,disjunctive,67179c4e867b679bd7ca1ee5,68ac5513942363d80aa12230,68ac49e7f5750fd7a623e599,Sound A,1113,3,comprehension
1635,blue,25,,Sound B,Graduated College,unpleasant,241290,1756124685476,1756124444186,male,English,disjunctive,67179c4e867b679bd7ca1ee5,68ac5513942363d80aa12230,68ac49e7f5750fd7a623e599,Sound B,1129,4,comprehension
1635,blue,25,,only the islanders know,Graduated College,unpleasant,241290,1756124685476,1756124444186,male,English,disjunctive,67179c4e867b679bd7ca1ee5,68ac5513942363d80aa12230,68ac49e7f5750fd7a623e599,only the islanders know,4377,1,comprehension-2
1635,blue,25,,FALSE,Graduated College,unpleasant,241290,1756124685476,1756124444186,male,English,disjunctive,67179c4e867b679bd7ca1ee5,68ac5513942363d80aa12230,68ac49e7f5750fd7a623e599,FALSE,3273,2,comprehension-2
1635,blue,25,,NA,Graduated College,unpleasant,241290,1756124685476,1756124444186,male,English,disjunctive,67179c4e867b679bd7ca1ee5,68ac5513942363d80aa12230,68ac49e7f5750fd7a623e599,6,43571,1,critical
1645,red,73,,Sound A,Graduated High-school,unpleasant,245674,1756124721800,1756124476126,female,english,conjunctive,5b757a03976ecb0001b1168f,68ac55342888a20beea9bf8c,68ac49e7f5750fd7a623e599,Sound A,5571,1,comprehension
1645,red,73,,Sound B,Graduated High-school,unpleasant,245674,1756124721800,1756124476126,female,english,conjunctive,5b757a03976ecb0001b1168f,68ac55342888a20beea9bf8c,68ac49e7f5750fd7a623e599,Sound B,4446,2,comprehension
1645,red,73,,Sound B,Graduated High-school,unpleasant,245674,1756124721800,1756124476126,female,english,conjunctive,5b757a03976ecb0001b1168f,68ac55342888a20beea9bf8c,68ac49e7f5750fd7a623e599,Sound B,3115,3,comprehension
1645,red,73,,Sound B,Graduated High-school,unpleasant,245674,1756124721800,1756124476126,female,english,conjunctive,5b757a03976ecb0001b1168f,68ac55342888a20beea9bf8c,68ac49e7f5750fd7a623e599,Sound B,2026,4,comprehension
1645,red,73,,only the islanders know,Graduated High-school,unpleasant,245674,1756124721800,1756124476126,female,english,conjunctive,5b757a03976ecb0001b1168f,68ac55342888a20beea9bf8c,68ac49e7f5750fd7a623e599,90% for blue marbles and 10% for red marbles,18093,1,comprehension-2
1645,red,73,,FALSE,Graduated High-school,unpleasant,245674,1756124721800,1756124476126,female,english,conjunctive,5b757a03976ecb0001b1168f,68ac55342888a20beea9bf8c,68ac49e7f5750fd7a623e599,FALSE,5300,2,comprehension-2
1645,red,73,,NA,Graduated High-school,unpleasant,245674,1756124721800,1756124476126,female,english,conjunctive,5b757a03976ecb0001b1168f,68ac55342888a20beea9bf8c,68ac49e7f5750fd7a623e599,7,54218,1,critical
1650,red,56,,Sound A,Graduated College,pleasant,368375,1756124739540,1756124371165,male,English,disjunctive,62b22949a3d0a8d422573f97,68ac54cbcfca95efa0c21632,68ac49e7f5750fd7a623e599,Sound A,23952,1,comprehension
1650,red,56,,Sound A,Graduated College,pleasant,368375,1756124739540,1756124371165,male,English,disjunctive,62b22949a3d0a8d422573f97,68ac54cbcfca95efa0c21632,68ac49e7f5750fd7a623e599,Sound A,2183,2,comprehension
1650,red,56,,Sound A,Graduated College,pleasant,368375,1756124739540,1756124371165,male,English,disjunctive,62b22949a3d0a8d422573f97,68ac54cbcfca95efa0c21632,68ac49e7f5750fd7a623e599,Sound A,26868,3,comprehension
1650,red,56,,Sound B,Graduated College,pleasant,368375,1756124739540,1756124371165,male,English,disjunctive,62b22949a3d0a8d422573f97,68ac54cbcfca95efa0c21632,68ac49e7f5750fd7a623e599,Sound B,5624,4,comprehension
1650,red,56,,only the islanders know,Graduated College,pleasant,368375,1756124739540,1756124371165,male,English,disjunctive,62b22949a3d0a8d422573f97,68ac54cbcfca95efa0c21632,68ac49e7f5750fd7a623e599,90% for blue marbles and 10% for red marbles,29806,1,comprehension-2
1650,red,56,,FALSE,Graduated College,pleasant,368375,1756124739540,1756124371165,male,English,disjunctive,62b22949a3d0a8d422573f97,68ac54cbcfca95efa0c21632,68ac49e7f5750fd7a623e599,FALSE,8271,2,comprehension-2
1650,red,56,,NA,Graduated College,pleasant,368375,1756124739540,1756124371165,male,English,disjunctive,62b22949a3d0a8d422573f97,68ac54cbcfca95efa0c21632,68ac49e7f5750fd7a623e599,3,91710,1,critical
1659,blue,23,,Sound A,Graduated College,unpleasant,215806,1756124786083,1756124570277,male,english,conjunctive,6361c30e6cce2905491c97de,68ac5587fda794129aa8a43a,68ac49e7f5750fd7a623e599,Sound A,9633,1,comprehension
1659,blue,23,,Sound B,Graduated College,unpleasant,215806,1756124786083,1756124570277,male,english,conjunctive,6361c30e6cce2905491c97de,68ac5587fda794129aa8a43a,68ac49e7f5750fd7a623e599,Sound B,18185,2,comprehension
1659,blue,23,,Sound B,Graduated College,unpleasant,215806,1756124786083,1756124570277,male,english,conjunctive,6361c30e6cce2905491c97de,68ac5587fda794129aa8a43a,68ac49e7f5750fd7a623e599,Sound B,1844,3,comprehension
1659,blue,23,,Sound B,Graduated College,unpleasant,215806,1756124786083,1756124570277,male,english,conjunctive,6361c30e6cce2905491c97de,68ac5587fda794129aa8a43a,68ac49e7f5750fd7a623e599,Sound B,784,4,comprehension
1659,blue,23,,only the islanders know,Graduated College,unpleasant,215806,1756124786083,1756124570277,male,english,conjunctive,6361c30e6cce2905491c97de,68ac5587fda794129aa8a43a,68ac49e7f5750fd7a623e599,90% for blue marbles and 10% for red marbles,7642,1,comprehension-2
1659,blue,23,,FALSE,Graduated College,unpleasant,215806,1756124786083,1756124570277,male,english,conjunctive,6361c30e6cce2905491c97de,68ac5587fda794129aa8a43a,68ac49e7f5750fd7a623e599,FALSE,3906,2,comprehension-2
1659,blue,23,,NA,Graduated College,unpleasant,215806,1756124786083,1756124570277,male,english,conjunctive,6361c30e6cce2905491c97de,68ac5587fda794129aa8a43a,68ac49e7f5750fd7a623e599,4,61483,1,critical
1662,red,61,,Sound A,Graduated College,unpleasant,257217,1756124805257,1756124548040,female,English,disjunctive,5d3821f0ddea5a0001757f93,68ac5543a054eb325c34934e,68ac49e7f5750fd7a623e599,Sound B,16180,1,comprehension
1662,red,61,,Sound A,Graduated College,unpleasant,257217,1756124805257,1756124548040,female,English,disjunctive,5d3821f0ddea5a0001757f93,68ac5543a054eb325c34934e,68ac49e7f5750fd7a623e599,Sound A,10304,2,comprehension
1662,red,61,,Sound A,Graduated College,unpleasant,257217,1756124805257,1756124548040,female,English,disjunctive,5d3821f0ddea5a0001757f93,68ac5543a054eb325c34934e,68ac49e7f5750fd7a623e599,Sound B,5370,3,comprehension
1662,red,61,,Sound B,Graduated College,unpleasant,257217,1756124805257,1756124548040,female,English,disjunctive,5d3821f0ddea5a0001757f93,68ac5543a054eb325c34934e,68ac49e7f5750fd7a623e599,Sound A,8592,4,comprehension
1662,red,61,,only the islanders know,Graduated College,unpleasant,257217,1756124805257,1756124548040,female,English,disjunctive,5d3821f0ddea5a0001757f93,68ac5543a054eb325c34934e,68ac49e7f5750fd7a623e599,only the islanders know,15536,1,comprehension-2
1662,red,61,,FALSE,Graduated College,unpleasant,257217,1756124805257,1756124548040,female,English,disjunctive,5d3821f0ddea5a0001757f93,68ac5543a054eb325c34934e,68ac49e7f5750fd7a623e599,FALSE,4200,2,comprehension-2
1662,red,61,,NA,Graduated College,unpleasant,257217,1756124805257,1756124548040,female,English,disjunctive,5d3821f0ddea5a0001757f93,68ac5543a054eb325c34934e,68ac49e7f5750fd7a623e599,4,48494,1,critical
1660,red,60,,Sound A,Graduated College,pleasant,258169,1756124785958,1756124527789,male,English,conjunctive,5f6f2da91b5cc64887afd65d,68ac555d0eca5793376fe0d9,68ac49e7f5750fd7a623e599,Sound A,11345,1,comprehension
1660,red,60,,Sound B,Graduated College,pleasant,258169,1756124785958,1756124527789,male,English,conjunctive,5f6f2da91b5cc64887afd65d,68ac555d0eca5793376fe0d9,68ac49e7f5750fd7a623e599,Sound B,2762,2,comprehension
1660,red,60,,Sound B,Graduated College,pleasant,258169,1756124785958,1756124527789,male,English,conjunctive,5f6f2da91b5cc64887afd65d,68ac555d0eca5793376fe0d9,68ac49e7f5750fd7a623e599,Sound B,2166,3,comprehension
1660,red,60,,Sound B,Graduated College,pleasant,258169,1756124785958,1756124527789,male,English,conjunctive,5f6f2da91b5cc64887afd65d,68ac555d0eca5793376fe0d9,68ac49e7f5750fd7a623e599,Sound B,1733,4,comprehension
1660,red,60,,only the islanders know,Graduated College,pleasant,258169,1756124785958,1756124527789,male,English,conjunctive,5f6f2da91b5cc64887afd65d,68ac555d0eca5793376fe0d9,68ac49e7f5750fd7a623e599,90% for blue marbles and 10% for red marbles,18529,1,comprehension-2
1660,red,60,,FALSE,Graduated College,pleasant,258169,1756124785958,1756124527789,male,English,conjunctive,5f6f2da91b5cc64887afd65d,68ac555d0eca5793376fe0d9,68ac49e7f5750fd7a623e599,FALSE,5516,2,comprehension-2
1660,red,60,,NA,Graduated College,pleasant,258169,1756124785958,1756124527789,male,English,conjunctive,5f6f2da91b5cc64887afd65d,68ac555d0eca5793376fe0d9,68ac49e7f5750fd7a623e599,7,49217,1,critical
1677,red,32,,Sound A,Graduated High-school,neutral,150940,1756124853237,1756124702297,male,english,disjunctive,67633e21c1dbfc7844faf425,68ac55f7a03f6f408d7457f3,68ac49e7f5750fd7a623e599,Sound A,3098,1,comprehension
1677,red,32,,Sound A,Graduated High-school,neutral,150940,1756124853237,1756124702297,male,english,disjunctive,67633e21c1dbfc7844faf425,68ac55f7a03f6f408d7457f3,68ac49e7f5750fd7a623e599,Sound A,1035,2,comprehension
1677,red,32,,Sound A,Graduated High-school,neutral,150940,1756124853237,1756124702297,male,english,disjunctive,67633e21c1dbfc7844faf425,68ac55f7a03f6f408d7457f3,68ac49e7f5750fd7a623e599,Sound A,1411,3,comprehension
1677,red,32,,Sound B,Graduated High-school,neutral,150940,1756124853237,1756124702297,male,english,disjunctive,67633e21c1dbfc7844faf425,68ac55f7a03f6f408d7457f3,68ac49e7f5750fd7a623e599,Sound B,1274,4,comprehension
1677,red,32,,only the islanders know,Graduated High-school,neutral,150940,1756124853237,1756124702297,male,english,disjunctive,67633e21c1dbfc7844faf425,68ac55f7a03f6f408d7457f3,68ac49e7f5750fd7a623e599,only the islanders know,13545,1,comprehension-2
1677,red,32,,FALSE,Graduated High-school,neutral,150940,1756124853237,1756124702297,male,english,disjunctive,67633e21c1dbfc7844faf425,68ac55f7a03f6f408d7457f3,68ac49e7f5750fd7a623e599,FALSE,3645,2,comprehension-2
1677,red,32,,NA,Graduated High-school,neutral,150940,1756124853237,1756124702297,male,english,disjunctive,67633e21c1dbfc7844faf425,68ac55f7a03f6f408d7457f3,68ac49e7f5750fd7a623e599,4,31911,1,critical
1690,red,40,,Sound A,Graduated College,neutral,204483,1756124896619,1756124692136,male,,disjunctive,677ef42cdcee10c2f02a1441,68ac55f924331213ac375c9a,68ac49e7f5750fd7a623e599,Sound A,12465,1,comprehension
1690,red,40,,Sound A,Graduated College,neutral,204483,1756124896619,1756124692136,male,,disjunctive,677ef42cdcee10c2f02a1441,68ac55f924331213ac375c9a,68ac49e7f5750fd7a623e599,Sound A,19983,2,comprehension
1690,red,40,,Sound A,Graduated College,neutral,204483,1756124896619,1756124692136,male,,disjunctive,677ef42cdcee10c2f02a1441,68ac55f924331213ac375c9a,68ac49e7f5750fd7a623e599,Sound B,5486,3,comprehension
1690,red,40,,Sound B,Graduated College,neutral,204483,1756124896619,1756124692136,male,,disjunctive,677ef42cdcee10c2f02a1441,68ac55f924331213ac375c9a,68ac49e7f5750fd7a623e599,Sound B,11915,4,comprehension
1690,red,40,,only the islanders know,Graduated College,neutral,204483,1756124896619,1756124692136,male,,disjunctive,677ef42cdcee10c2f02a1441,68ac55f924331213ac375c9a,68ac49e7f5750fd7a623e599,90% for blue marbles and 10% for red marbles,5605,1,comprehension-2
1690,red,40,,FALSE,Graduated College,neutral,204483,1756124896619,1756124692136,male,,disjunctive,677ef42cdcee10c2f02a1441,68ac55f924331213ac375c9a,68ac49e7f5750fd7a623e599,FALSE,3208,2,comprehension-2
1690,red,40,,NA,Graduated College,neutral,204483,1756124896619,1756124692136,male,,disjunctive,677ef42cdcee10c2f02a1441,68ac55f924331213ac375c9a,68ac49e7f5750fd7a623e599,6,6919,1,critical
1710,red,54,,Sound A,Graduated High-school,pleasant,476108,1756124974496,1756124498388,male,English,conjunctive,5c5c8b70758f310001ed429a,68ac554b4cc62cfe1cb736ea,68ac49e7f5750fd7a623e599,Sound A,74620,1,comprehension
1710,red,54,,Sound B,Graduated High-school,pleasant,476108,1756124974496,1756124498388,male,English,conjunctive,5c5c8b70758f310001ed429a,68ac554b4cc62cfe1cb736ea,68ac49e7f5750fd7a623e599,Sound B,15004,2,comprehension
1710,red,54,,Sound B,Graduated High-school,pleasant,476108,1756124974496,1756124498388,male,English,conjunctive,5c5c8b70758f310001ed429a,68ac554b4cc62cfe1cb736ea,68ac49e7f5750fd7a623e599,Sound B,4335,3,comprehension
1710,red,54,,Sound B,Graduated High-school,pleasant,476108,1756124974496,1756124498388,male,English,conjunctive,5c5c8b70758f310001ed429a,68ac554b4cc62cfe1cb736ea,68ac49e7f5750fd7a623e599,Sound B,3737,4,comprehension
1710,red,54,,only the islanders know,Graduated High-school,pleasant,476108,1756124974496,1756124498388,male,English,conjunctive,5c5c8b70758f310001ed429a,68ac554b4cc62cfe1cb736ea,68ac49e7f5750fd7a623e599,only the islanders know,44290,1,comprehension-2
1710,red,54,,FALSE,Graduated High-school,pleasant,476108,1756124974496,1756124498388,male,English,conjunctive,5c5c8b70758f310001ed429a,68ac554b4cc62cfe1cb736ea,68ac49e7f5750fd7a623e599,FALSE,10474,2,comprehension-2
1710,red,54,,NA,Graduated High-school,pleasant,476108,1756124974496,1756124498388,male,English,conjunctive,5c5c8b70758f310001ed429a,68ac554b4cc62cfe1cb736ea,68ac49e7f5750fd7a623e599,4,93552,1,critical
1667,red,75,,Sound A,Graduated High-school,unpleasant,221530,1756124829256,1756124607726,female,English,disjunctive,5c5cad3e4ee81200018eafe2,68ac559b9073a3e99791cab7,68ac49e7f5750fd7a623e599,Sound A,11143,1,comprehension
1667,red,75,,Sound A,Graduated High-school,unpleasant,221530,1756124829256,1756124607726,female,English,disjunctive,5c5cad3e4ee81200018eafe2,68ac559b9073a3e99791cab7,68ac49e7f5750fd7a623e599,Sound A,4865,2,comprehension
1667,red,75,,Sound A,Graduated High-school,unpleasant,221530,1756124829256,1756124607726,female,English,disjunctive,5c5cad3e4ee81200018eafe2,68ac559b9073a3e99791cab7,68ac49e7f5750fd7a623e599,Sound A,2890,3,comprehension
1667,red,75,,Sound B,Graduated High-school,unpleasant,221530,1756124829256,1756124607726,female,English,disjunctive,5c5cad3e4ee81200018eafe2,68ac559b9073a3e99791cab7,68ac49e7f5750fd7a623e599,Sound B,1862,4,comprehension
1667,red,75,,only the islanders know,Graduated High-school,unpleasant,221530,1756124829256,1756124607726,female,English,disjunctive,5c5cad3e4ee81200018eafe2,68ac559b9073a3e99791cab7,68ac49e7f5750fd7a623e599,only the islanders know,25930,1,comprehension-2
1667,red,75,,FALSE,Graduated High-school,unpleasant,221530,1756124829256,1756124607726,female,English,disjunctive,5c5cad3e4ee81200018eafe2,68ac559b9073a3e99791cab7,68ac49e7f5750fd7a623e599,FALSE,6992,2,comprehension-2
1667,red,75,,NA,Graduated High-school,unpleasant,221530,1756124829256,1756124607726,female,English,disjunctive,5c5cad3e4ee81200018eafe2,68ac559b9073a3e99791cab7,68ac49e7f5750fd7a623e599,6,35863,1,critical
1697,red,46,None to add.,Sound A,Graduated College,unpleasant,400263,1756124934592,1756124534329,male,English,conjunctive,5dc71b96d210e45213e92359,68ac55343b1fda6510089ab7,68ac49e7f5750fd7a623e599,Sound A,36365,1,comprehension
1697,red,46,None to add.,Sound B,Graduated College,unpleasant,400263,1756124934592,1756124534329,male,English,conjunctive,5dc71b96d210e45213e92359,68ac55343b1fda6510089ab7,68ac49e7f5750fd7a623e599,Sound B,11279,2,comprehension
1697,red,46,None to add.,Sound B,Graduated College,unpleasant,400263,1756124934592,1756124534329,male,English,conjunctive,5dc71b96d210e45213e92359,68ac55343b1fda6510089ab7,68ac49e7f5750fd7a623e599,Sound B,4812,3,comprehension
1697,red,46,None to add.,Sound B,Graduated College,unpleasant,400263,1756124934592,1756124534329,male,English,conjunctive,5dc71b96d210e45213e92359,68ac55343b1fda6510089ab7,68ac49e7f5750fd7a623e599,Sound B,4588,4,comprehension
1697,red,46,None to add.,only the islanders know,Graduated College,unpleasant,400263,1756124934592,1756124534329,male,English,conjunctive,5dc71b96d210e45213e92359,68ac55343b1fda6510089ab7,68ac49e7f5750fd7a623e599,only the islanders know,17001,1,comprehension-2
1697,red,46,None to add.,FALSE,Graduated College,unpleasant,400263,1756124934592,1756124534329,male,English,conjunctive,5dc71b96d210e45213e92359,68ac55343b1fda6510089ab7,68ac49e7f5750fd7a623e599,FALSE,5588,2,comprehension-2
1697,red,46,None to add.,NA,Graduated College,unpleasant,400263,1756124934592,1756124534329,male,English,conjunctive,5dc71b96d210e45213e92359,68ac55343b1fda6510089ab7,68ac49e7f5750fd7a623e599,3,86522,1,critical
1711,red,45,,Sound A,Higher degree,unpleasant,144470,1756124980358,1756124835888,male,English,conjunctive,5c99d104490924000111bfcc,68ac569813f3b5d77ef1a9a4,68ac49e7f5750fd7a623e599,Sound A,2578,1,comprehension
1711,red,45,,Sound B,Higher degree,unpleasant,144470,1756124980358,1756124835888,male,English,conjunctive,5c99d104490924000111bfcc,68ac569813f3b5d77ef1a9a4,68ac49e7f5750fd7a623e599,Sound A,3532,2,comprehension
1711,red,45,,Sound B,Higher degree,unpleasant,144470,1756124980358,1756124835888,male,English,conjunctive,5c99d104490924000111bfcc,68ac569813f3b5d77ef1a9a4,68ac49e7f5750fd7a623e599,Sound B,2082,3,comprehension
1711,red,45,,Sound B,Higher degree,unpleasant,144470,1756124980358,1756124835888,male,English,conjunctive,5c99d104490924000111bfcc,68ac569813f3b5d77ef1a9a4,68ac49e7f5750fd7a623e599,Sound B,4556,4,comprehension
1711,red,45,,only the islanders know,Higher degree,unpleasant,144470,1756124980358,1756124835888,male,English,conjunctive,5c99d104490924000111bfcc,68ac569813f3b5d77ef1a9a4,68ac49e7f5750fd7a623e599,90% for blue marbles and 10% for red marbles,7232,1,comprehension-2
1711,red,45,,FALSE,Higher degree,unpleasant,144470,1756124980358,1756124835888,male,English,conjunctive,5c99d104490924000111bfcc,68ac569813f3b5d77ef1a9a4,68ac49e7f5750fd7a623e599,FALSE,4785,2,comprehension-2
1711,red,45,,NA,Higher degree,unpleasant,144470,1756124980358,1756124835888,male,English,conjunctive,5c99d104490924000111bfcc,68ac569813f3b5d77ef1a9a4,68ac49e7f5750fd7a623e599,7,8350,1,critical
1688,blue,54,,Sound A,Higher degree,unpleasant,488454,1756124890776,1756124402322,female,English,conjunctive,6710a58eeff954cb2243950e,68ac54e18916bf86cf856d0e,68ac49e7f5750fd7a623e599,Sound A,17510,1,comprehension
1688,blue,54,,Sound B,Higher degree,unpleasant,488454,1756124890776,1756124402322,female,English,conjunctive,6710a58eeff954cb2243950e,68ac54e18916bf86cf856d0e,68ac49e7f5750fd7a623e599,Sound B,17377,2,comprehension
1688,blue,54,,Sound B,Higher degree,unpleasant,488454,1756124890776,1756124402322,female,English,conjunctive,6710a58eeff954cb2243950e,68ac54e18916bf86cf856d0e,68ac49e7f5750fd7a623e599,Sound B,6721,3,comprehension
1688,blue,54,,Sound B,Higher degree,unpleasant,488454,1756124890776,1756124402322,female,English,conjunctive,6710a58eeff954cb2243950e,68ac54e18916bf86cf856d0e,68ac49e7f5750fd7a623e599,Sound B,3222,4,comprehension
1688,blue,54,,only the islanders know,Higher degree,unpleasant,488454,1756124890776,1756124402322,female,English,conjunctive,6710a58eeff954cb2243950e,68ac54e18916bf86cf856d0e,68ac49e7f5750fd7a623e599,90% for blue marbles and 10% for red marbles,7413,1,comprehension-2
1688,blue,54,,FALSE,Higher degree,unpleasant,488454,1756124890776,1756124402322,female,English,conjunctive,6710a58eeff954cb2243950e,68ac54e18916bf86cf856d0e,68ac49e7f5750fd7a623e599,FALSE,4230,2,comprehension-2
1688,blue,54,,NA,Higher degree,unpleasant,488454,1756124890776,1756124402322,female,English,conjunctive,6710a58eeff954cb2243950e,68ac54e18916bf86cf856d0e,68ac49e7f5750fd7a623e599,5,107022,1,critical
