submission_id,actual_outcome,age,comments,correctResponse,education,effect_valence,experiment_duration,experiment_end_time,experiment_start_time,gender,languages,mechanism,prolific_pid,prolific_session_id,prolific_study_id,response,responseTime,trialNr,trialType
1897,blue,,,Sound A,,unpleasant,55946,1757270883691,1757270827745,,,disjunctive,684a12ce6791bc422c72abbb,68bdcfb1de5b7ff1ffd14201,68bdb7fd001027b66a95f0f4,Sound A,5115,1,comprehension
1897,blue,,,Sound A,,unpleasant,55946,1757270883691,1757270827745,,,disjunctive,684a12ce6791bc422c72abbb,68bdcfb1de5b7ff1ffd14201,68bdb7fd001027b66a95f0f4,Sound B,6782,2,comprehension
1897,blue,,,Sound A,,unpleasant,55946,1757270883691,1757270827745,,,disjunctive,684a12ce6791bc422c72abbb,68bdcfb1de5b7ff1ffd14201,68bdb7fd001027b66a95f0f4,Sound B,1088,3,comprehension
1897,blue,,,Sound B,,unpleasant,55946,1757270883691,1757270827745,,,disjunctive,684a12ce6791bc422c72abbb,68bdcfb1de5b7ff1ffd14201,68bdb7fd001027b66a95f0f4,Sound B,2076,4,comprehension
1897,blue,,,only the islanders know,,unpleasant,55946,1757270883691,1757270827745,,,disjunctive,684a12ce6791bc422c72abbb,68bdcfb1de5b7ff1ffd14201,68bdb7fd001027b66a95f0f4,90% for blue marbles and 10% for red marbles,7049,1,comprehension-2
1897,blue,,,FALSE,,unpleasant,55946,1757270883691,1757270827745,,,disjunctive,684a12ce6791bc422c72abbb,68bdcfb1de5b7ff1ffd14201,68bdb7fd001027b66a95f0f4,FALSE,7654,2,comprehension-2
1897,blue,,,NA,,unpleasant,55946,1757270883691,1757270827745,,,disjunctive,684a12ce6791bc422c72abbb,68bdcfb1de5b7ff1ffd14201,68bdb7fd001027b66a95f0f4,3,9776,1,critical
1806,blue,28,,Sound A,Graduated College,pleasant,187916,1757269165383,1757268977467,male,English,disjunctive,6310c063bd0cce86b0289d20,68bdcbdbd05cdae91344371c,68bdb7fd001027b66a95f0f4,Sound A,1185,1,comprehension
1806,blue,28,,Sound A,Graduated College,pleasant,187916,1757269165383,1757268977467,male,English,disjunctive,6310c063bd0cce86b0289d20,68bdcbdbd05cdae91344371c,68bdb7fd001027b66a95f0f4,Sound A,1803,2,comprehension
1806,blue,28,,Sound A,Graduated College,pleasant,187916,1757269165383,1757268977467,male,English,disjunctive,6310c063bd0cce86b0289d20,68bdcbdbd05cdae91344371c,68bdb7fd001027b66a95f0f4,Sound A,1088,3,comprehension
1806,blue,28,,Sound B,Graduated College,pleasant,187916,1757269165383,1757268977467,male,English,disjunctive,6310c063bd0cce86b0289d20,68bdcbdbd05cdae91344371c,68bdb7fd001027b66a95f0f4,Sound A,4898,4,comprehension
1806,blue,28,,only the islanders know,Graduated College,pleasant,187916,1757269165383,1757268977467,male,English,disjunctive,6310c063bd0cce86b0289d20,68bdcbdbd05cdae91344371c,68bdb7fd001027b66a95f0f4,only the islanders know,7380,1,comprehension-2
1806,blue,28,,FALSE,Graduated College,pleasant,187916,1757269165383,1757268977467,male,English,disjunctive,6310c063bd0cce86b0289d20,68bdcbdbd05cdae91344371c,68bdb7fd001027b66a95f0f4,FALSE,1856,2,comprehension-2
1806,blue,28,,NA,Graduated College,pleasant,187916,1757269165383,1757268977467,male,English,disjunctive,6310c063bd0cce86b0289d20,68bdcbdbd05cdae91344371c,68bdb7fd001027b66a95f0f4,7,10417,1,critical
1807,blue,52,,Sound A,Higher degree,neutral,135425,1757269185162,1757269049737,male,English ,conjunctive,563f734bcbd4c60005dc9442,68bdcc30e78251d97f6e114e,68bdb7fd001027b66a95f0f4,Sound A,7839,1,comprehension
1807,blue,52,,Sound B,Higher degree,neutral,135425,1757269185162,1757269049737,male,English ,conjunctive,563f734bcbd4c60005dc9442,68bdcc30e78251d97f6e114e,68bdb7fd001027b66a95f0f4,Sound B,10567,2,comprehension
1807,blue,52,,Sound B,Higher degree,neutral,135425,1757269185162,1757269049737,male,English ,conjunctive,563f734bcbd4c60005dc9442,68bdcc30e78251d97f6e114e,68bdb7fd001027b66a95f0f4,Sound B,3084,3,comprehension
1807,blue,52,,Sound B,Higher degree,neutral,135425,1757269185162,1757269049737,male,English ,conjunctive,563f734bcbd4c60005dc9442,68bdcc30e78251d97f6e114e,68bdb7fd001027b66a95f0f4,Sound B,2950,4,comprehension
1807,blue,52,,only the islanders know,Higher degree,neutral,135425,1757269185162,1757269049737,male,English ,conjunctive,563f734bcbd4c60005dc9442,68bdcc30e78251d97f6e114e,68bdb7fd001027b66a95f0f4,90% for blue marbles and 10% for red marbles,8888,1,comprehension-2
1807,blue,52,,FALSE,Higher degree,neutral,135425,1757269185162,1757269049737,male,English ,conjunctive,563f734bcbd4c60005dc9442,68bdcc30e78251d97f6e114e,68bdb7fd001027b66a95f0f4,FALSE,4351,2,comprehension-2
1807,blue,52,,NA,Higher degree,neutral,135425,1757269185162,1757269049737,male,English ,conjunctive,563f734bcbd4c60005dc9442,68bdcc30e78251d97f6e114e,68bdb7fd001027b66a95f0f4,2,23004,1,critical
1808,red,30,,Sound A,Graduated College,pleasant,139975,1757269207580,1757269067605,male,English,disjunctive,59baf1a2178f1b0001828a26,68bdcc407655496de6e5dee0,68bdb7fd001027b66a95f0f4,Sound A,6661,1,comprehension
1808,red,30,,Sound A,Graduated College,pleasant,139975,1757269207580,1757269067605,male,English,disjunctive,59baf1a2178f1b0001828a26,68bdcc407655496de6e5dee0,68bdb7fd001027b66a95f0f4,Sound A,9046,2,comprehension
1808,red,30,,Sound A,Graduated College,pleasant,139975,1757269207580,1757269067605,male,English,disjunctive,59baf1a2178f1b0001828a26,68bdcc407655496de6e5dee0,68bdb7fd001027b66a95f0f4,Sound A,2110,3,comprehension
1808,red,30,,Sound B,Graduated College,pleasant,139975,1757269207580,1757269067605,male,English,disjunctive,59baf1a2178f1b0001828a26,68bdcc407655496de6e5dee0,68bdb7fd001027b66a95f0f4,Sound B,1687,4,comprehension
1808,red,30,,only the islanders know,Graduated College,pleasant,139975,1757269207580,1757269067605,male,English,disjunctive,59baf1a2178f1b0001828a26,68bdcc407655496de6e5dee0,68bdb7fd001027b66a95f0f4,only the islanders know,10527,1,comprehension-2
1808,red,30,,FALSE,Graduated College,pleasant,139975,1757269207580,1757269067605,male,English,disjunctive,59baf1a2178f1b0001828a26,68bdcc407655496de6e5dee0,68bdb7fd001027b66a95f0f4,FALSE,2779,2,comprehension-2
1808,red,30,,NA,Graduated College,pleasant,139975,1757269207580,1757269067605,male,English,disjunctive,59baf1a2178f1b0001828a26,68bdcc407655496de6e5dee0,68bdb7fd001027b66a95f0f4,3,56965,1,critical
1809,blue,29,,Sound A,Higher degree,pleasant,180753,1757269214395,1757269033642,female,English,disjunctive,5bce39ceb8bc680001c67555,68bdcc22e02ea51e02b8c107,68bdb7fd001027b66a95f0f4,Sound A,9335,1,comprehension
1809,blue,29,,Sound A,Higher degree,pleasant,180753,1757269214395,1757269033642,female,English,disjunctive,5bce39ceb8bc680001c67555,68bdcc22e02ea51e02b8c107,68bdb7fd001027b66a95f0f4,Sound A,4716,2,comprehension
1809,blue,29,,Sound A,Higher degree,pleasant,180753,1757269214395,1757269033642,female,English,disjunctive,5bce39ceb8bc680001c67555,68bdcc22e02ea51e02b8c107,68bdb7fd001027b66a95f0f4,Sound A,4100,3,comprehension
1809,blue,29,,Sound B,Higher degree,pleasant,180753,1757269214395,1757269033642,female,English,disjunctive,5bce39ceb8bc680001c67555,68bdcc22e02ea51e02b8c107,68bdb7fd001027b66a95f0f4,Sound B,2583,4,comprehension
1809,blue,29,,only the islanders know,Higher degree,pleasant,180753,1757269214395,1757269033642,female,English,disjunctive,5bce39ceb8bc680001c67555,68bdcc22e02ea51e02b8c107,68bdb7fd001027b66a95f0f4,90% for blue marbles and 10% for red marbles,8452,1,comprehension-2
1809,blue,29,,FALSE,Higher degree,pleasant,180753,1757269214395,1757269033642,female,English,disjunctive,5bce39ceb8bc680001c67555,68bdcc22e02ea51e02b8c107,68bdb7fd001027b66a95f0f4,FALSE,3466,2,comprehension-2
1809,blue,29,,NA,Higher degree,pleasant,180753,1757269214395,1757269033642,female,English,disjunctive,5bce39ceb8bc680001c67555,68bdcc22e02ea51e02b8c107,68bdb7fd001027b66a95f0f4,7,43666,1,critical
1810,blue,21,,Sound A,Graduated High-school,neutral,198857,1757269214478,1757269015621,male,English,disjunctive,6658b1b56a1df274ee633fdc,68bdcc108a76529b0b27336b,68bdb7fd001027b66a95f0f4,Sound A,6581,1,comprehension
1810,blue,21,,Sound A,Graduated High-school,neutral,198857,1757269214478,1757269015621,male,English,disjunctive,6658b1b56a1df274ee633fdc,68bdcc108a76529b0b27336b,68bdb7fd001027b66a95f0f4,Sound A,1989,2,comprehension
1810,blue,21,,Sound A,Graduated High-school,neutral,198857,1757269214478,1757269015621,male,English,disjunctive,6658b1b56a1df274ee633fdc,68bdcc108a76529b0b27336b,68bdb7fd001027b66a95f0f4,Sound A,1364,3,comprehension
1810,blue,21,,Sound B,Graduated High-school,neutral,198857,1757269214478,1757269015621,male,English,disjunctive,6658b1b56a1df274ee633fdc,68bdcc108a76529b0b27336b,68bdb7fd001027b66a95f0f4,Sound B,1259,4,comprehension
1810,blue,21,,only the islanders know,Graduated High-school,neutral,198857,1757269214478,1757269015621,male,English,disjunctive,6658b1b56a1df274ee633fdc,68bdcc108a76529b0b27336b,68bdb7fd001027b66a95f0f4,only the islanders know,5418,1,comprehension-2
1810,blue,21,,FALSE,Graduated High-school,neutral,198857,1757269214478,1757269015621,male,English,disjunctive,6658b1b56a1df274ee633fdc,68bdcc108a76529b0b27336b,68bdb7fd001027b66a95f0f4,FALSE,2017,2,comprehension-2
1810,blue,21,,NA,Graduated High-school,neutral,198857,1757269214478,1757269015621,male,English,disjunctive,6658b1b56a1df274ee633fdc,68bdcc108a76529b0b27336b,68bdb7fd001027b66a95f0f4,6,22070,1,critical
1811,blue,33,,Sound A,Higher degree,pleasant,201442,1757269224209,1757269022767,male,English,conjunctive,64136457f1327294ffb3fef9,68bdcc187c078d230bf19513,68bdb7fd001027b66a95f0f4,Sound A,17729,1,comprehension
1811,blue,33,,Sound B,Higher degree,pleasant,201442,1757269224209,1757269022767,male,English,conjunctive,64136457f1327294ffb3fef9,68bdcc187c078d230bf19513,68bdb7fd001027b66a95f0f4,Sound B,2911,2,comprehension
1811,blue,33,,Sound B,Higher degree,pleasant,201442,1757269224209,1757269022767,male,English,conjunctive,64136457f1327294ffb3fef9,68bdcc187c078d230bf19513,68bdb7fd001027b66a95f0f4,Sound B,1712,3,comprehension
1811,blue,33,,Sound B,Higher degree,pleasant,201442,1757269224209,1757269022767,male,English,conjunctive,64136457f1327294ffb3fef9,68bdcc187c078d230bf19513,68bdb7fd001027b66a95f0f4,Sound B,1327,4,comprehension
1811,blue,33,,only the islanders know,Higher degree,pleasant,201442,1757269224209,1757269022767,male,English,conjunctive,64136457f1327294ffb3fef9,68bdcc187c078d230bf19513,68bdb7fd001027b66a95f0f4,90% for blue marbles and 10% for red marbles,15153,1,comprehension-2
1811,blue,33,,FALSE,Higher degree,pleasant,201442,1757269224209,1757269022767,male,English,conjunctive,64136457f1327294ffb3fef9,68bdcc187c078d230bf19513,68bdb7fd001027b66a95f0f4,FALSE,5471,2,comprehension-2
1811,blue,33,,NA,Higher degree,pleasant,201442,1757269224209,1757269022767,male,English,conjunctive,64136457f1327294ffb3fef9,68bdcc187c078d230bf19513,68bdb7fd001027b66a95f0f4,1,37224,1,critical
1812,red,26,,Sound A,Graduated High-school,unpleasant,189449,1757269226900,1757269037451,male,English,conjunctive,5a9fa90f873cda00010d29d8,68bdcc21e743c055ae2e63dd,68bdb7fd001027b66a95f0f4,Sound A,15577,1,comprehension
1812,red,26,,Sound B,Graduated High-school,unpleasant,189449,1757269226900,1757269037451,male,English,conjunctive,5a9fa90f873cda00010d29d8,68bdcc21e743c055ae2e63dd,68bdb7fd001027b66a95f0f4,Sound B,11992,2,comprehension
1812,red,26,,Sound B,Graduated High-school,unpleasant,189449,1757269226900,1757269037451,male,English,conjunctive,5a9fa90f873cda00010d29d8,68bdcc21e743c055ae2e63dd,68bdb7fd001027b66a95f0f4,Sound B,4007,3,comprehension
1812,red,26,,Sound B,Graduated High-school,unpleasant,189449,1757269226900,1757269037451,male,English,conjunctive,5a9fa90f873cda00010d29d8,68bdcc21e743c055ae2e63dd,68bdb7fd001027b66a95f0f4,Sound B,2141,4,comprehension
1812,red,26,,only the islanders know,Graduated High-school,unpleasant,189449,1757269226900,1757269037451,male,English,conjunctive,5a9fa90f873cda00010d29d8,68bdcc21e743c055ae2e63dd,68bdb7fd001027b66a95f0f4,only the islanders know,16043,1,comprehension-2
1812,red,26,,FALSE,Graduated High-school,unpleasant,189449,1757269226900,1757269037451,male,English,conjunctive,5a9fa90f873cda00010d29d8,68bdcc21e743c055ae2e63dd,68bdb7fd001027b66a95f0f4,FALSE,5282,2,comprehension-2
1812,red,26,,NA,Graduated High-school,unpleasant,189449,1757269226900,1757269037451,male,English,conjunctive,5a9fa90f873cda00010d29d8,68bdcc21e743c055ae2e63dd,68bdb7fd001027b66a95f0f4,1,26698,1,critical
1813,red,64,,Sound A,Graduated College,neutral,227772,1757269244120,1757269016348,female,English,disjunctive,5e1aeccbd32f9332c931651e,68bdcc0854635cb1a2212984,68bdb7fd001027b66a95f0f4,Sound A,10339,1,comprehension
1813,red,64,,Sound A,Graduated College,neutral,227772,1757269244120,1757269016348,female,English,disjunctive,5e1aeccbd32f9332c931651e,68bdcc0854635cb1a2212984,68bdb7fd001027b66a95f0f4,Sound A,4505,2,comprehension
1813,red,64,,Sound A,Graduated College,neutral,227772,1757269244120,1757269016348,female,English,disjunctive,5e1aeccbd32f9332c931651e,68bdcc0854635cb1a2212984,68bdb7fd001027b66a95f0f4,Sound A,3112,3,comprehension
1813,red,64,,Sound B,Graduated College,neutral,227772,1757269244120,1757269016348,female,English,disjunctive,5e1aeccbd32f9332c931651e,68bdcc0854635cb1a2212984,68bdb7fd001027b66a95f0f4,Sound B,4055,4,comprehension
1813,red,64,,only the islanders know,Graduated College,neutral,227772,1757269244120,1757269016348,female,English,disjunctive,5e1aeccbd32f9332c931651e,68bdcc0854635cb1a2212984,68bdb7fd001027b66a95f0f4,90% for blue marbles and 10% for red marbles,14669,1,comprehension-2
1813,red,64,,FALSE,Graduated College,neutral,227772,1757269244120,1757269016348,female,English,disjunctive,5e1aeccbd32f9332c931651e,68bdcc0854635cb1a2212984,68bdb7fd001027b66a95f0f4,FALSE,4138,2,comprehension-2
1813,red,64,,NA,Graduated College,neutral,227772,1757269244120,1757269016348,female,English,disjunctive,5e1aeccbd32f9332c931651e,68bdcc0854635cb1a2212984,68bdb7fd001027b66a95f0f4,4,53642,1,critical
1814,blue,41,,Sound A,Higher degree,unpleasant,156655,1757269252990,1757269096335,male,Englsh,conjunctive,5e96185ae3d45508abe19a36,68bdcc5ce25449511e5e32a4,68bdb7fd001027b66a95f0f4,Sound A,8297,1,comprehension
1814,blue,41,,Sound B,Higher degree,unpleasant,156655,1757269252990,1757269096335,male,Englsh,conjunctive,5e96185ae3d45508abe19a36,68bdcc5ce25449511e5e32a4,68bdb7fd001027b66a95f0f4,Sound B,3085,2,comprehension
1814,blue,41,,Sound B,Higher degree,unpleasant,156655,1757269252990,1757269096335,male,Englsh,conjunctive,5e96185ae3d45508abe19a36,68bdcc5ce25449511e5e32a4,68bdb7fd001027b66a95f0f4,Sound B,1984,3,comprehension
1814,blue,41,,Sound B,Higher degree,unpleasant,156655,1757269252990,1757269096335,male,Englsh,conjunctive,5e96185ae3d45508abe19a36,68bdcc5ce25449511e5e32a4,68bdb7fd001027b66a95f0f4,Sound B,1301,4,comprehension
1814,blue,41,,only the islanders know,Higher degree,unpleasant,156655,1757269252990,1757269096335,male,Englsh,conjunctive,5e96185ae3d45508abe19a36,68bdcc5ce25449511e5e32a4,68bdb7fd001027b66a95f0f4,90% for blue marbles and 10% for red marbles,18475,1,comprehension-2
1814,blue,41,,FALSE,Higher degree,unpleasant,156655,1757269252990,1757269096335,male,Englsh,conjunctive,5e96185ae3d45508abe19a36,68bdcc5ce25449511e5e32a4,68bdb7fd001027b66a95f0f4,FALSE,3943,2,comprehension-2
1814,blue,41,,NA,Higher degree,unpleasant,156655,1757269252990,1757269096335,male,Englsh,conjunctive,5e96185ae3d45508abe19a36,68bdcc5ce25449511e5e32a4,68bdb7fd001027b66a95f0f4,4,25267,1,critical
1818,blue,46,n/a,Sound A,Graduated College,unpleasant,259985,1757269302661,1757269042676,male,English,conjunctive,66bbafb05de7e549455aa4ff,68bdcc2893fcbb032e02e0b2,68bdb7fd001027b66a95f0f4,Sound A,8617,1,comprehension
1818,blue,46,n/a,Sound B,Graduated College,unpleasant,259985,1757269302661,1757269042676,male,English,conjunctive,66bbafb05de7e549455aa4ff,68bdcc2893fcbb032e02e0b2,68bdb7fd001027b66a95f0f4,Sound B,1771,2,comprehension
1818,blue,46,n/a,Sound B,Graduated College,unpleasant,259985,1757269302661,1757269042676,male,English,conjunctive,66bbafb05de7e549455aa4ff,68bdcc2893fcbb032e02e0b2,68bdb7fd001027b66a95f0f4,Sound B,1065,3,comprehension
1818,blue,46,n/a,Sound B,Graduated College,unpleasant,259985,1757269302661,1757269042676,male,English,conjunctive,66bbafb05de7e549455aa4ff,68bdcc2893fcbb032e02e0b2,68bdb7fd001027b66a95f0f4,Sound B,847,4,comprehension
1818,blue,46,n/a,only the islanders know,Graduated College,unpleasant,259985,1757269302661,1757269042676,male,English,conjunctive,66bbafb05de7e549455aa4ff,68bdcc2893fcbb032e02e0b2,68bdb7fd001027b66a95f0f4,only the islanders know,27032,1,comprehension-2
1818,blue,46,n/a,FALSE,Graduated College,unpleasant,259985,1757269302661,1757269042676,male,English,conjunctive,66bbafb05de7e549455aa4ff,68bdcc2893fcbb032e02e0b2,68bdb7fd001027b66a95f0f4,FALSE,2220,2,comprehension-2
1818,blue,46,n/a,NA,Graduated College,unpleasant,259985,1757269302661,1757269042676,male,English,conjunctive,66bbafb05de7e549455aa4ff,68bdcc2893fcbb032e02e0b2,68bdb7fd001027b66a95f0f4,2,48160,1,critical
1820,red,32,,Sound A,Graduated College,unpleasant,122296,1757269304443,1757269182147,female,English,conjunctive,613bae70cab01ced932e5e9f,68bdcc9f38b9a46a558e76e0,68bdb7fd001027b66a95f0f4,Sound A,6623,1,comprehension
1820,red,32,,Sound B,Graduated College,unpleasant,122296,1757269304443,1757269182147,female,English,conjunctive,613bae70cab01ced932e5e9f,68bdcc9f38b9a46a558e76e0,68bdb7fd001027b66a95f0f4,Sound B,1440,2,comprehension
1820,red,32,,Sound B,Graduated College,unpleasant,122296,1757269304443,1757269182147,female,English,conjunctive,613bae70cab01ced932e5e9f,68bdcc9f38b9a46a558e76e0,68bdb7fd001027b66a95f0f4,Sound B,1065,3,comprehension
1820,red,32,,Sound B,Graduated College,unpleasant,122296,1757269304443,1757269182147,female,English,conjunctive,613bae70cab01ced932e5e9f,68bdcc9f38b9a46a558e76e0,68bdb7fd001027b66a95f0f4,Sound B,918,4,comprehension
1820,red,32,,only the islanders know,Graduated College,unpleasant,122296,1757269304443,1757269182147,female,English,conjunctive,613bae70cab01ced932e5e9f,68bdcc9f38b9a46a558e76e0,68bdb7fd001027b66a95f0f4,only the islanders know,5796,1,comprehension-2
1820,red,32,,FALSE,Graduated College,unpleasant,122296,1757269304443,1757269182147,female,English,conjunctive,613bae70cab01ced932e5e9f,68bdcc9f38b9a46a558e76e0,68bdb7fd001027b66a95f0f4,FALSE,1953,2,comprehension-2
1820,red,32,,NA,Graduated College,unpleasant,122296,1757269304443,1757269182147,female,English,conjunctive,613bae70cab01ced932e5e9f,68bdcc9f38b9a46a558e76e0,68bdb7fd001027b66a95f0f4,6,29935,1,critical
1821,blue,41,"I would have had the explanation accessible throughout the experiment, just because adding complexity throughout was kind of hard to keep track of.",Sound A,Graduated College,unpleasant,287415,1757269307152,1757269019737,male,English,disjunctive,6776cdf98d57e424a247e48a,68bdcc17298851b1754032a8,68bdb7fd001027b66a95f0f4,Sound A,5825,1,comprehension
1821,blue,41,"I would have had the explanation accessible throughout the experiment, just because adding complexity throughout was kind of hard to keep track of.",Sound A,Graduated College,unpleasant,287415,1757269307152,1757269019737,male,English,disjunctive,6776cdf98d57e424a247e48a,68bdcc17298851b1754032a8,68bdb7fd001027b66a95f0f4,Sound A,10079,2,comprehension
1821,blue,41,"I would have had the explanation accessible throughout the experiment, just because adding complexity throughout was kind of hard to keep track of.",Sound A,Graduated College,unpleasant,287415,1757269307152,1757269019737,male,English,disjunctive,6776cdf98d57e424a247e48a,68bdcc17298851b1754032a8,68bdb7fd001027b66a95f0f4,Sound A,4285,3,comprehension
1821,blue,41,"I would have had the explanation accessible throughout the experiment, just because adding complexity throughout was kind of hard to keep track of.",Sound B,Graduated College,unpleasant,287415,1757269307152,1757269019737,male,English,disjunctive,6776cdf98d57e424a247e48a,68bdcc17298851b1754032a8,68bdb7fd001027b66a95f0f4,Sound B,7887,4,comprehension
1821,blue,41,"I would have had the explanation accessible throughout the experiment, just because adding complexity throughout was kind of hard to keep track of.",only the islanders know,Graduated College,unpleasant,287415,1757269307152,1757269019737,male,English,disjunctive,6776cdf98d57e424a247e48a,68bdcc17298851b1754032a8,68bdb7fd001027b66a95f0f4,90% for red marbles and 10% for blue marbles,28916,1,comprehension-2
1821,blue,41,"I would have had the explanation accessible throughout the experiment, just because adding complexity throughout was kind of hard to keep track of.",FALSE,Graduated College,unpleasant,287415,1757269307152,1757269019737,male,English,disjunctive,6776cdf98d57e424a247e48a,68bdcc17298851b1754032a8,68bdb7fd001027b66a95f0f4,FALSE,2877,2,comprehension-2
1821,blue,41,"I would have had the explanation accessible throughout the experiment, just because adding complexity throughout was kind of hard to keep track of.",NA,Graduated College,unpleasant,287415,1757269307152,1757269019737,male,English,disjunctive,6776cdf98d57e424a247e48a,68bdcc17298851b1754032a8,68bdb7fd001027b66a95f0f4,4,54013,1,critical
1825,blue,35,,Sound A,Graduated College,pleasant,283350,1757269326707,1757269043357,male,English,disjunctive,66435e2e5c5b5aceb2195908,68bdcc1a76251818d42e7c52,68bdb7fd001027b66a95f0f4,Sound A,36422,1,comprehension
1825,blue,35,,Sound A,Graduated College,pleasant,283350,1757269326707,1757269043357,male,English,disjunctive,66435e2e5c5b5aceb2195908,68bdcc1a76251818d42e7c52,68bdb7fd001027b66a95f0f4,Sound A,9378,2,comprehension
1825,blue,35,,Sound A,Graduated College,pleasant,283350,1757269326707,1757269043357,male,English,disjunctive,66435e2e5c5b5aceb2195908,68bdcc1a76251818d42e7c52,68bdb7fd001027b66a95f0f4,Sound A,5925,3,comprehension
1825,blue,35,,Sound B,Graduated College,pleasant,283350,1757269326707,1757269043357,male,English,disjunctive,66435e2e5c5b5aceb2195908,68bdcc1a76251818d42e7c52,68bdb7fd001027b66a95f0f4,Sound B,4381,4,comprehension
1825,blue,35,,only the islanders know,Graduated College,pleasant,283350,1757269326707,1757269043357,male,English,disjunctive,66435e2e5c5b5aceb2195908,68bdcc1a76251818d42e7c52,68bdb7fd001027b66a95f0f4,only the islanders know,49214,1,comprehension-2
1825,blue,35,,FALSE,Graduated College,pleasant,283350,1757269326707,1757269043357,male,English,disjunctive,66435e2e5c5b5aceb2195908,68bdcc1a76251818d42e7c52,68bdb7fd001027b66a95f0f4,FALSE,3047,2,comprehension-2
1825,blue,35,,NA,Graduated College,pleasant,283350,1757269326707,1757269043357,male,English,disjunctive,66435e2e5c5b5aceb2195908,68bdcc1a76251818d42e7c52,68bdb7fd001027b66a95f0f4,7,35725,1,critical
1832,red,63,,Sound A,Graduated High-school,pleasant,232287,1757269352097,1757269119810,male,English,disjunctive,5ebebcf619a604258a233c4f,68bdcc69a35219ac8d7089fb,68bdb7fd001027b66a95f0f4,Sound A,12591,1,comprehension
1832,red,63,,Sound A,Graduated High-school,pleasant,232287,1757269352097,1757269119810,male,English,disjunctive,5ebebcf619a604258a233c4f,68bdcc69a35219ac8d7089fb,68bdb7fd001027b66a95f0f4,Sound A,4381,2,comprehension
1832,red,63,,Sound A,Graduated High-school,pleasant,232287,1757269352097,1757269119810,male,English,disjunctive,5ebebcf619a604258a233c4f,68bdcc69a35219ac8d7089fb,68bdb7fd001027b66a95f0f4,Sound A,3240,3,comprehension
1832,red,63,,Sound B,Graduated High-school,pleasant,232287,1757269352097,1757269119810,male,English,disjunctive,5ebebcf619a604258a233c4f,68bdcc69a35219ac8d7089fb,68bdb7fd001027b66a95f0f4,Sound B,2330,4,comprehension
1832,red,63,,only the islanders know,Graduated High-school,pleasant,232287,1757269352097,1757269119810,male,English,disjunctive,5ebebcf619a604258a233c4f,68bdcc69a35219ac8d7089fb,68bdb7fd001027b66a95f0f4,90% for blue marbles and 10% for red marbles,8602,1,comprehension-2
1832,red,63,,FALSE,Graduated High-school,pleasant,232287,1757269352097,1757269119810,male,English,disjunctive,5ebebcf619a604258a233c4f,68bdcc69a35219ac8d7089fb,68bdb7fd001027b66a95f0f4,FALSE,4572,2,comprehension-2
1832,red,63,,NA,Graduated High-school,pleasant,232287,1757269352097,1757269119810,male,English,disjunctive,5ebebcf619a604258a233c4f,68bdcc69a35219ac8d7089fb,68bdb7fd001027b66a95f0f4,4,39276,1,critical
1836,blue,38,none,Sound A,Higher degree,unpleasant,232810,1757269384406,1757269151596,female,english,conjunctive,665a222ec21c09f2b8731fde,68bdcc8d68707080fd1319ec,68bdb7fd001027b66a95f0f4,Sound A,2914,1,comprehension
1836,blue,38,none,Sound B,Higher degree,unpleasant,232810,1757269384406,1757269151596,female,english,conjunctive,665a222ec21c09f2b8731fde,68bdcc8d68707080fd1319ec,68bdb7fd001027b66a95f0f4,Sound B,2604,2,comprehension
1836,blue,38,none,Sound B,Higher degree,unpleasant,232810,1757269384406,1757269151596,female,english,conjunctive,665a222ec21c09f2b8731fde,68bdcc8d68707080fd1319ec,68bdb7fd001027b66a95f0f4,Sound B,8913,3,comprehension
1836,blue,38,none,Sound B,Higher degree,unpleasant,232810,1757269384406,1757269151596,female,english,conjunctive,665a222ec21c09f2b8731fde,68bdcc8d68707080fd1319ec,68bdb7fd001027b66a95f0f4,Sound B,1563,4,comprehension
1836,blue,38,none,only the islanders know,Higher degree,unpleasant,232810,1757269384406,1757269151596,female,english,conjunctive,665a222ec21c09f2b8731fde,68bdcc8d68707080fd1319ec,68bdb7fd001027b66a95f0f4,90% for blue marbles and 10% for red marbles,11288,1,comprehension-2
1836,blue,38,none,FALSE,Higher degree,unpleasant,232810,1757269384406,1757269151596,female,english,conjunctive,665a222ec21c09f2b8731fde,68bdcc8d68707080fd1319ec,68bdb7fd001027b66a95f0f4,FALSE,7048,2,comprehension-2
1836,blue,38,none,NA,Higher degree,unpleasant,232810,1757269384406,1757269151596,female,english,conjunctive,665a222ec21c09f2b8731fde,68bdcc8d68707080fd1319ec,68bdb7fd001027b66a95f0f4,7,44044,1,critical
1837,red,40,,Sound A,Did not graduate High-school,pleasant,368101,1757269395426,1757269027325,male,English,disjunctive,606cf604adbb6982bb382881,68bdcc1a001027b66a95f1ab,68bdb7fd001027b66a95f0f4,Sound A,3710,1,comprehension
1837,red,40,,Sound A,Did not graduate High-school,pleasant,368101,1757269395426,1757269027325,male,English,disjunctive,606cf604adbb6982bb382881,68bdcc1a001027b66a95f1ab,68bdb7fd001027b66a95f0f4,Sound A,23304,2,comprehension
1837,red,40,,Sound A,Did not graduate High-school,pleasant,368101,1757269395426,1757269027325,male,English,disjunctive,606cf604adbb6982bb382881,68bdcc1a001027b66a95f1ab,68bdb7fd001027b66a95f0f4,Sound A,12107,3,comprehension
1837,red,40,,Sound B,Did not graduate High-school,pleasant,368101,1757269395426,1757269027325,male,English,disjunctive,606cf604adbb6982bb382881,68bdcc1a001027b66a95f1ab,68bdb7fd001027b66a95f0f4,Sound B,2504,4,comprehension
1837,red,40,,only the islanders know,Did not graduate High-school,pleasant,368101,1757269395426,1757269027325,male,English,disjunctive,606cf604adbb6982bb382881,68bdcc1a001027b66a95f1ab,68bdb7fd001027b66a95f0f4,only the islanders know,24424,1,comprehension-2
1837,red,40,,FALSE,Did not graduate High-school,pleasant,368101,1757269395426,1757269027325,male,English,disjunctive,606cf604adbb6982bb382881,68bdcc1a001027b66a95f1ab,68bdb7fd001027b66a95f0f4,FALSE,6182,2,comprehension-2
1837,red,40,,NA,Did not graduate High-school,pleasant,368101,1757269395426,1757269027325,male,English,disjunctive,606cf604adbb6982bb382881,68bdcc1a001027b66a95f1ab,68bdb7fd001027b66a95f0f4,1,20302,1,critical
1815,blue,33,,Sound A,Higher degree,pleasant,210459,1757269263764,1757269053305,male,English,conjunctive,6658b5353d9792782e263acc,68bdcc33965eb65e95cff596,68bdb7fd001027b66a95f0f4,Sound A,10201,1,comprehension
1815,blue,33,,Sound B,Higher degree,pleasant,210459,1757269263764,1757269053305,male,English,conjunctive,6658b5353d9792782e263acc,68bdcc33965eb65e95cff596,68bdb7fd001027b66a95f0f4,Sound B,2920,2,comprehension
1815,blue,33,,Sound B,Higher degree,pleasant,210459,1757269263764,1757269053305,male,English,conjunctive,6658b5353d9792782e263acc,68bdcc33965eb65e95cff596,68bdb7fd001027b66a95f0f4,Sound B,1583,3,comprehension
1815,blue,33,,Sound B,Higher degree,pleasant,210459,1757269263764,1757269053305,male,English,conjunctive,6658b5353d9792782e263acc,68bdcc33965eb65e95cff596,68bdb7fd001027b66a95f0f4,Sound B,1024,4,comprehension
1815,blue,33,,only the islanders know,Higher degree,pleasant,210459,1757269263764,1757269053305,male,English,conjunctive,6658b5353d9792782e263acc,68bdcc33965eb65e95cff596,68bdb7fd001027b66a95f0f4,only the islanders know,13112,1,comprehension-2
1815,blue,33,,FALSE,Higher degree,pleasant,210459,1757269263764,1757269053305,male,English,conjunctive,6658b5353d9792782e263acc,68bdcc33965eb65e95cff596,68bdb7fd001027b66a95f0f4,FALSE,3903,2,comprehension-2
1815,blue,33,,NA,Higher degree,pleasant,210459,1757269263764,1757269053305,male,English,conjunctive,6658b5353d9792782e263acc,68bdcc33965eb65e95cff596,68bdb7fd001027b66a95f0f4,4,68735,1,critical
1816,blue,27,,Sound A,Graduated College,pleasant,303021,1757269273515,1757268970494,male,English ,conjunctive,6785b7dd6705050739feb0ad,68bdcbe3880d147c52b53914,68bdb7fd001027b66a95f0f4,Sound A,10917,1,comprehension
1816,blue,27,,Sound B,Graduated College,pleasant,303021,1757269273515,1757268970494,male,English ,conjunctive,6785b7dd6705050739feb0ad,68bdcbe3880d147c52b53914,68bdb7fd001027b66a95f0f4,Sound B,2316,2,comprehension
1816,blue,27,,Sound B,Graduated College,pleasant,303021,1757269273515,1757268970494,male,English ,conjunctive,6785b7dd6705050739feb0ad,68bdcbe3880d147c52b53914,68bdb7fd001027b66a95f0f4,Sound B,1183,3,comprehension
1816,blue,27,,Sound B,Graduated College,pleasant,303021,1757269273515,1757268970494,male,English ,conjunctive,6785b7dd6705050739feb0ad,68bdcbe3880d147c52b53914,68bdb7fd001027b66a95f0f4,Sound B,924,4,comprehension
1816,blue,27,,only the islanders know,Graduated College,pleasant,303021,1757269273515,1757268970494,male,English ,conjunctive,6785b7dd6705050739feb0ad,68bdcbe3880d147c52b53914,68bdb7fd001027b66a95f0f4,90% for blue marbles and 10% for red marbles,27637,1,comprehension-2
1816,blue,27,,FALSE,Graduated College,pleasant,303021,1757269273515,1757268970494,male,English ,conjunctive,6785b7dd6705050739feb0ad,68bdcbe3880d147c52b53914,68bdb7fd001027b66a95f0f4,FALSE,44910,2,comprehension-2
1816,blue,27,,NA,Graduated College,pleasant,303021,1757269273515,1757268970494,male,English ,conjunctive,6785b7dd6705050739feb0ad,68bdcbe3880d147c52b53914,68bdb7fd001027b66a95f0f4,7,59980,1,critical
1817,blue,25,n/a,Sound A,Graduated College,unpleasant,210197,1757269282331,1757269072134,female,English,conjunctive,676b11ba7e6d9f1310e3903a,68bdcc4ada43381f31f823e7,68bdb7fd001027b66a95f0f4,Sound A,20000,1,comprehension
1817,blue,25,n/a,Sound B,Graduated College,unpleasant,210197,1757269282331,1757269072134,female,English,conjunctive,676b11ba7e6d9f1310e3903a,68bdcc4ada43381f31f823e7,68bdb7fd001027b66a95f0f4,Sound B,3084,2,comprehension
1817,blue,25,n/a,Sound B,Graduated College,unpleasant,210197,1757269282331,1757269072134,female,English,conjunctive,676b11ba7e6d9f1310e3903a,68bdcc4ada43381f31f823e7,68bdb7fd001027b66a95f0f4,Sound B,1531,3,comprehension
1817,blue,25,n/a,Sound B,Graduated College,unpleasant,210197,1757269282331,1757269072134,female,English,conjunctive,676b11ba7e6d9f1310e3903a,68bdcc4ada43381f31f823e7,68bdb7fd001027b66a95f0f4,Sound B,1881,4,comprehension
1817,blue,25,n/a,only the islanders know,Graduated College,unpleasant,210197,1757269282331,1757269072134,female,English,conjunctive,676b11ba7e6d9f1310e3903a,68bdcc4ada43381f31f823e7,68bdb7fd001027b66a95f0f4,only the islanders know,16624,1,comprehension-2
1817,blue,25,n/a,FALSE,Graduated College,unpleasant,210197,1757269282331,1757269072134,female,English,conjunctive,676b11ba7e6d9f1310e3903a,68bdcc4ada43381f31f823e7,68bdb7fd001027b66a95f0f4,FALSE,2480,2,comprehension-2
1817,blue,25,n/a,NA,Graduated College,unpleasant,210197,1757269282331,1757269072134,female,English,conjunctive,676b11ba7e6d9f1310e3903a,68bdcc4ada43381f31f823e7,68bdb7fd001027b66a95f0f4,2,36976,1,critical
1819,blue,28,,Sound A,Graduated High-school,unpleasant,276879,1757269305395,1757269028516,female,"English, Setswana, Sepedi",disjunctive,5fa5818b4a7c41076f4a9941,68bdcc1c59da8aa56ed02ee7,68bdb7fd001027b66a95f0f4,Sound A,17168,1,comprehension
1819,blue,28,,Sound A,Graduated High-school,unpleasant,276879,1757269305395,1757269028516,female,"English, Setswana, Sepedi",disjunctive,5fa5818b4a7c41076f4a9941,68bdcc1c59da8aa56ed02ee7,68bdb7fd001027b66a95f0f4,Sound A,9000,2,comprehension
1819,blue,28,,Sound A,Graduated High-school,unpleasant,276879,1757269305395,1757269028516,female,"English, Setswana, Sepedi",disjunctive,5fa5818b4a7c41076f4a9941,68bdcc1c59da8aa56ed02ee7,68bdb7fd001027b66a95f0f4,Sound A,4955,3,comprehension
1819,blue,28,,Sound B,Graduated High-school,unpleasant,276879,1757269305395,1757269028516,female,"English, Setswana, Sepedi",disjunctive,5fa5818b4a7c41076f4a9941,68bdcc1c59da8aa56ed02ee7,68bdb7fd001027b66a95f0f4,Sound B,2210,4,comprehension
1819,blue,28,,only the islanders know,Graduated High-school,unpleasant,276879,1757269305395,1757269028516,female,"English, Setswana, Sepedi",disjunctive,5fa5818b4a7c41076f4a9941,68bdcc1c59da8aa56ed02ee7,68bdb7fd001027b66a95f0f4,90% for red marbles and 10% for blue marbles,13227,1,comprehension-2
1819,blue,28,,FALSE,Graduated High-school,unpleasant,276879,1757269305395,1757269028516,female,"English, Setswana, Sepedi",disjunctive,5fa5818b4a7c41076f4a9941,68bdcc1c59da8aa56ed02ee7,68bdb7fd001027b66a95f0f4,FALSE,5174,2,comprehension-2
1819,blue,28,,NA,Graduated High-school,unpleasant,276879,1757269305395,1757269028516,female,"English, Setswana, Sepedi",disjunctive,5fa5818b4a7c41076f4a9941,68bdcc1c59da8aa56ed02ee7,68bdb7fd001027b66a95f0f4,6,51858,1,critical
1822,red,40,,Sound A,Higher degree,neutral,256038,1757269309754,1757269053716,female,English,disjunctive,5e7dba4f1d6961436474c8f2,68bdcc11593443caaf941689,68bdb7fd001027b66a95f0f4,Sound A,10227,1,comprehension
1822,red,40,,Sound A,Higher degree,neutral,256038,1757269309754,1757269053716,female,English,disjunctive,5e7dba4f1d6961436474c8f2,68bdcc11593443caaf941689,68bdb7fd001027b66a95f0f4,Sound B,15760,2,comprehension
1822,red,40,,Sound A,Higher degree,neutral,256038,1757269309754,1757269053716,female,English,disjunctive,5e7dba4f1d6961436474c8f2,68bdcc11593443caaf941689,68bdb7fd001027b66a95f0f4,Sound A,12600,3,comprehension
1822,red,40,,Sound B,Higher degree,neutral,256038,1757269309754,1757269053716,female,English,disjunctive,5e7dba4f1d6961436474c8f2,68bdcc11593443caaf941689,68bdb7fd001027b66a95f0f4,Sound A,4061,4,comprehension
1822,red,40,,only the islanders know,Higher degree,neutral,256038,1757269309754,1757269053716,female,English,disjunctive,5e7dba4f1d6961436474c8f2,68bdcc11593443caaf941689,68bdb7fd001027b66a95f0f4,90% for blue marbles and 10% for red marbles,7013,1,comprehension-2
1822,red,40,,FALSE,Higher degree,neutral,256038,1757269309754,1757269053716,female,English,disjunctive,5e7dba4f1d6961436474c8f2,68bdcc11593443caaf941689,68bdb7fd001027b66a95f0f4,FALSE,3397,2,comprehension-2
1822,red,40,,NA,Higher degree,neutral,256038,1757269309754,1757269053716,female,English,disjunctive,5e7dba4f1d6961436474c8f2,68bdcc11593443caaf941689,68bdb7fd001027b66a95f0f4,7,27525,1,critical
1823,blue,25,,Sound A,Graduated College,neutral,137656,1757269318344,1757269180688,other,English ,disjunctive,615f598df06d6fab3adc843c,68bdcc1c4a0c6439999bc439,68bdb7fd001027b66a95f0f4,Sound A,16345,1,comprehension
1823,blue,25,,Sound A,Graduated College,neutral,137656,1757269318344,1757269180688,other,English ,disjunctive,615f598df06d6fab3adc843c,68bdcc1c4a0c6439999bc439,68bdb7fd001027b66a95f0f4,Sound A,4376,2,comprehension
1823,blue,25,,Sound A,Graduated College,neutral,137656,1757269318344,1757269180688,other,English ,disjunctive,615f598df06d6fab3adc843c,68bdcc1c4a0c6439999bc439,68bdb7fd001027b66a95f0f4,Sound A,1603,3,comprehension
1823,blue,25,,Sound B,Graduated College,neutral,137656,1757269318344,1757269180688,other,English ,disjunctive,615f598df06d6fab3adc843c,68bdcc1c4a0c6439999bc439,68bdb7fd001027b66a95f0f4,Sound B,1789,4,comprehension
1823,blue,25,,only the islanders know,Graduated College,neutral,137656,1757269318344,1757269180688,other,English ,disjunctive,615f598df06d6fab3adc843c,68bdcc1c4a0c6439999bc439,68bdb7fd001027b66a95f0f4,90% for red marbles and 10% for blue marbles,11496,1,comprehension-2
1823,blue,25,,FALSE,Graduated College,neutral,137656,1757269318344,1757269180688,other,English ,disjunctive,615f598df06d6fab3adc843c,68bdcc1c4a0c6439999bc439,68bdb7fd001027b66a95f0f4,FALSE,2373,2,comprehension-2
1823,blue,25,,NA,Graduated College,neutral,137656,1757269318344,1757269180688,other,English ,disjunctive,615f598df06d6fab3adc843c,68bdcc1c4a0c6439999bc439,68bdb7fd001027b66a95f0f4,1,23261,1,critical
1824,red,44,,Sound A,Higher degree,pleasant,141091,1757269325907,1757269184816,female,English,conjunctive,67320610635afc65498583cb,68bdccb5190155316652fbd7,68bdb7fd001027b66a95f0f4,Sound A,28181,1,comprehension
1824,red,44,,Sound B,Higher degree,pleasant,141091,1757269325907,1757269184816,female,English,conjunctive,67320610635afc65498583cb,68bdccb5190155316652fbd7,68bdb7fd001027b66a95f0f4,Sound B,3730,2,comprehension
1824,red,44,,Sound B,Higher degree,pleasant,141091,1757269325907,1757269184816,female,English,conjunctive,67320610635afc65498583cb,68bdccb5190155316652fbd7,68bdb7fd001027b66a95f0f4,Sound B,2326,3,comprehension
1824,red,44,,Sound B,Higher degree,pleasant,141091,1757269325907,1757269184816,female,English,conjunctive,67320610635afc65498583cb,68bdccb5190155316652fbd7,68bdb7fd001027b66a95f0f4,Sound B,1538,4,comprehension
1824,red,44,,only the islanders know,Higher degree,pleasant,141091,1757269325907,1757269184816,female,English,conjunctive,67320610635afc65498583cb,68bdccb5190155316652fbd7,68bdb7fd001027b66a95f0f4,90% for blue marbles and 10% for red marbles,4957,1,comprehension-2
1824,red,44,,FALSE,Higher degree,pleasant,141091,1757269325907,1757269184816,female,English,conjunctive,67320610635afc65498583cb,68bdccb5190155316652fbd7,68bdb7fd001027b66a95f0f4,FALSE,4901,2,comprehension-2
1824,red,44,,NA,Higher degree,pleasant,141091,1757269325907,1757269184816,female,English,conjunctive,67320610635afc65498583cb,68bdccb5190155316652fbd7,68bdb7fd001027b66a95f0f4,3,21194,1,critical
1826,blue,31,,Sound A,Graduated College,pleasant,152714,1757269328090,1757269175376,male,English,conjunctive,66cb416f427974865365523d,68bdccb1154c2efcdbf1b85c,68bdb7fd001027b66a95f0f4,Sound A,11590,1,comprehension
1826,blue,31,,Sound B,Graduated College,pleasant,152714,1757269328090,1757269175376,male,English,conjunctive,66cb416f427974865365523d,68bdccb1154c2efcdbf1b85c,68bdb7fd001027b66a95f0f4,Sound B,1923,2,comprehension
1826,blue,31,,Sound B,Graduated College,pleasant,152714,1757269328090,1757269175376,male,English,conjunctive,66cb416f427974865365523d,68bdccb1154c2efcdbf1b85c,68bdb7fd001027b66a95f0f4,Sound B,1136,3,comprehension
1826,blue,31,,Sound B,Graduated College,pleasant,152714,1757269328090,1757269175376,male,English,conjunctive,66cb416f427974865365523d,68bdccb1154c2efcdbf1b85c,68bdb7fd001027b66a95f0f4,Sound B,775,4,comprehension
1826,blue,31,,only the islanders know,Graduated College,pleasant,152714,1757269328090,1757269175376,male,English,conjunctive,66cb416f427974865365523d,68bdccb1154c2efcdbf1b85c,68bdb7fd001027b66a95f0f4,90% for blue marbles and 10% for red marbles,9142,1,comprehension-2
1826,blue,31,,FALSE,Graduated College,pleasant,152714,1757269328090,1757269175376,male,English,conjunctive,66cb416f427974865365523d,68bdccb1154c2efcdbf1b85c,68bdb7fd001027b66a95f0f4,FALSE,2844,2,comprehension-2
1826,blue,31,,NA,Graduated College,pleasant,152714,1757269328090,1757269175376,male,English,conjunctive,66cb416f427974865365523d,68bdccb1154c2efcdbf1b85c,68bdb7fd001027b66a95f0f4,2,29569,1,critical
1827,red,25,,Sound A,Higher degree,pleasant,301749,1757269328296,1757269026547,male,english,conjunctive,63d021639b090bcb4ece2e73,68bdcc1b58f6cfed3ae4e6c0,68bdb7fd001027b66a95f0f4,Sound A,11969,1,comprehension
1827,red,25,,Sound B,Higher degree,pleasant,301749,1757269328296,1757269026547,male,english,conjunctive,63d021639b090bcb4ece2e73,68bdcc1b58f6cfed3ae4e6c0,68bdb7fd001027b66a95f0f4,Sound B,3813,2,comprehension
1827,red,25,,Sound B,Higher degree,pleasant,301749,1757269328296,1757269026547,male,english,conjunctive,63d021639b090bcb4ece2e73,68bdcc1b58f6cfed3ae4e6c0,68bdb7fd001027b66a95f0f4,Sound B,3342,3,comprehension
1827,red,25,,Sound B,Higher degree,pleasant,301749,1757269328296,1757269026547,male,english,conjunctive,63d021639b090bcb4ece2e73,68bdcc1b58f6cfed3ae4e6c0,68bdb7fd001027b66a95f0f4,Sound B,666,4,comprehension
1827,red,25,,only the islanders know,Higher degree,pleasant,301749,1757269328296,1757269026547,male,english,conjunctive,63d021639b090bcb4ece2e73,68bdcc1b58f6cfed3ae4e6c0,68bdb7fd001027b66a95f0f4,90% for blue marbles and 10% for red marbles,9175,1,comprehension-2
1827,red,25,,FALSE,Higher degree,pleasant,301749,1757269328296,1757269026547,male,english,conjunctive,63d021639b090bcb4ece2e73,68bdcc1b58f6cfed3ae4e6c0,68bdb7fd001027b66a95f0f4,FALSE,2318,2,comprehension-2
1827,red,25,,NA,Higher degree,pleasant,301749,1757269328296,1757269026547,male,english,conjunctive,63d021639b090bcb4ece2e73,68bdcc1b58f6cfed3ae4e6c0,68bdb7fd001027b66a95f0f4,3,101154,1,critical
1828,red,62,Complex instructions.,Sound A,Graduated College,unpleasant,305152,1757269329881,1757269024729,female,English,disjunctive,580cab86b869700001d71628,68bdcc19209c2a38c7a67a67,68bdb7fd001027b66a95f0f4,Sound A,3235,1,comprehension
1828,red,62,Complex instructions.,Sound A,Graduated College,unpleasant,305152,1757269329881,1757269024729,female,English,disjunctive,580cab86b869700001d71628,68bdcc19209c2a38c7a67a67,68bdb7fd001027b66a95f0f4,Sound B,1748,2,comprehension
1828,red,62,Complex instructions.,Sound A,Graduated College,unpleasant,305152,1757269329881,1757269024729,female,English,disjunctive,580cab86b869700001d71628,68bdcc19209c2a38c7a67a67,68bdb7fd001027b66a95f0f4,Sound B,836,3,comprehension
1828,red,62,Complex instructions.,Sound B,Graduated College,unpleasant,305152,1757269329881,1757269024729,female,English,disjunctive,580cab86b869700001d71628,68bdcc19209c2a38c7a67a67,68bdb7fd001027b66a95f0f4,Sound B,701,4,comprehension
1828,red,62,Complex instructions.,only the islanders know,Graduated College,unpleasant,305152,1757269329881,1757269024729,female,English,disjunctive,580cab86b869700001d71628,68bdcc19209c2a38c7a67a67,68bdb7fd001027b66a95f0f4,90% for red marbles and 10% for blue marbles,10288,1,comprehension-2
1828,red,62,Complex instructions.,FALSE,Graduated College,unpleasant,305152,1757269329881,1757269024729,female,English,disjunctive,580cab86b869700001d71628,68bdcc19209c2a38c7a67a67,68bdb7fd001027b66a95f0f4,FALSE,6265,2,comprehension-2
1828,red,62,Complex instructions.,NA,Graduated College,unpleasant,305152,1757269329881,1757269024729,female,English,disjunctive,580cab86b869700001d71628,68bdcc19209c2a38c7a67a67,68bdb7fd001027b66a95f0f4,1,30765,1,critical
1838,red,24,,Sound A,Graduated College,unpleasant,115749,1757269410278,1757269294529,female,English,conjunctive,5df12d8b53e84603acbf5319,68bdcd1fe02ea51e02b8c10f,68bdb7fd001027b66a95f0f4,Sound A,6397,1,comprehension
1838,red,24,,Sound B,Graduated College,unpleasant,115749,1757269410278,1757269294529,female,English,conjunctive,5df12d8b53e84603acbf5319,68bdcd1fe02ea51e02b8c10f,68bdb7fd001027b66a95f0f4,Sound B,4044,2,comprehension
1838,red,24,,Sound B,Graduated College,unpleasant,115749,1757269410278,1757269294529,female,English,conjunctive,5df12d8b53e84603acbf5319,68bdcd1fe02ea51e02b8c10f,68bdb7fd001027b66a95f0f4,Sound B,903,3,comprehension
1838,red,24,,Sound B,Graduated College,unpleasant,115749,1757269410278,1757269294529,female,English,conjunctive,5df12d8b53e84603acbf5319,68bdcd1fe02ea51e02b8c10f,68bdb7fd001027b66a95f0f4,Sound B,718,4,comprehension
1838,red,24,,only the islanders know,Graduated College,unpleasant,115749,1757269410278,1757269294529,female,English,conjunctive,5df12d8b53e84603acbf5319,68bdcd1fe02ea51e02b8c10f,68bdb7fd001027b66a95f0f4,90% for blue marbles and 10% for red marbles,3731,1,comprehension-2
1838,red,24,,FALSE,Graduated College,unpleasant,115749,1757269410278,1757269294529,female,English,conjunctive,5df12d8b53e84603acbf5319,68bdcd1fe02ea51e02b8c10f,68bdb7fd001027b66a95f0f4,FALSE,4096,2,comprehension-2
1838,red,24,,NA,Graduated College,unpleasant,115749,1757269410278,1757269294529,female,English,conjunctive,5df12d8b53e84603acbf5319,68bdcd1fe02ea51e02b8c10f,68bdb7fd001027b66a95f0f4,6,24383,1,critical
1852,blue,37,,Sound A,Higher degree,unpleasant,367805,1757269462227,1757269094422,male,english,disjunctive,673ca4608f18ef24e2013513,68bdccace743c055ae2e63e4,68bdb7fd001027b66a95f0f4,Sound A,2277,1,comprehension
1852,blue,37,,Sound A,Higher degree,unpleasant,367805,1757269462227,1757269094422,male,english,disjunctive,673ca4608f18ef24e2013513,68bdccace743c055ae2e63e4,68bdb7fd001027b66a95f0f4,Sound B,27405,2,comprehension
1852,blue,37,,Sound A,Higher degree,unpleasant,367805,1757269462227,1757269094422,male,english,disjunctive,673ca4608f18ef24e2013513,68bdccace743c055ae2e63e4,68bdb7fd001027b66a95f0f4,Sound B,2943,3,comprehension
1852,blue,37,,Sound B,Higher degree,unpleasant,367805,1757269462227,1757269094422,male,english,disjunctive,673ca4608f18ef24e2013513,68bdccace743c055ae2e63e4,68bdb7fd001027b66a95f0f4,Sound A,2201,4,comprehension
1852,blue,37,,only the islanders know,Higher degree,unpleasant,367805,1757269462227,1757269094422,male,english,disjunctive,673ca4608f18ef24e2013513,68bdccace743c055ae2e63e4,68bdb7fd001027b66a95f0f4,90% for blue marbles and 10% for red marbles,37301,1,comprehension-2
1852,blue,37,,FALSE,Higher degree,unpleasant,367805,1757269462227,1757269094422,male,english,disjunctive,673ca4608f18ef24e2013513,68bdccace743c055ae2e63e4,68bdb7fd001027b66a95f0f4,FALSE,6402,2,comprehension-2
1852,blue,37,,NA,Higher degree,unpleasant,367805,1757269462227,1757269094422,male,english,disjunctive,673ca4608f18ef24e2013513,68bdccace743c055ae2e63e4,68bdb7fd001027b66a95f0f4,7,72625,1,critical
1829,red,43,Interesting survey! thanks!,Sound A,Graduated College,pleasant,181547,1757269327900,1757269146353,male,English,conjunctive,65f8caa8238a933fdf42f4c3,68bdcc290d30bed8b782b70a,68bdb7fd001027b66a95f0f4,Sound A,11518,1,comprehension
1829,red,43,Interesting survey! thanks!,Sound B,Graduated College,pleasant,181547,1757269327900,1757269146353,male,English,conjunctive,65f8caa8238a933fdf42f4c3,68bdcc290d30bed8b782b70a,68bdb7fd001027b66a95f0f4,Sound B,2538,2,comprehension
1829,red,43,Interesting survey! thanks!,Sound B,Graduated College,pleasant,181547,1757269327900,1757269146353,male,English,conjunctive,65f8caa8238a933fdf42f4c3,68bdcc290d30bed8b782b70a,68bdb7fd001027b66a95f0f4,Sound B,1302,3,comprehension
1829,red,43,Interesting survey! thanks!,Sound B,Graduated College,pleasant,181547,1757269327900,1757269146353,male,English,conjunctive,65f8caa8238a933fdf42f4c3,68bdcc290d30bed8b782b70a,68bdb7fd001027b66a95f0f4,Sound B,842,4,comprehension
1829,red,43,Interesting survey! thanks!,only the islanders know,Graduated College,pleasant,181547,1757269327900,1757269146353,male,English,conjunctive,65f8caa8238a933fdf42f4c3,68bdcc290d30bed8b782b70a,68bdb7fd001027b66a95f0f4,only the islanders know,14480,1,comprehension-2
1829,red,43,Interesting survey! thanks!,FALSE,Graduated College,pleasant,181547,1757269327900,1757269146353,male,English,conjunctive,65f8caa8238a933fdf42f4c3,68bdcc290d30bed8b782b70a,68bdb7fd001027b66a95f0f4,FALSE,3666,2,comprehension-2
1829,red,43,Interesting survey! thanks!,NA,Graduated College,pleasant,181547,1757269327900,1757269146353,male,English,conjunctive,65f8caa8238a933fdf42f4c3,68bdcc290d30bed8b782b70a,68bdb7fd001027b66a95f0f4,7,34212,1,critical
1831,red,46,,Sound A,Higher degree,neutral,160576,1757269335634,1757269175058,female,English,disjunctive,577a0a7aadbc7500015d2479,68bdccacd67ecff29871a858,68bdb7fd001027b66a95f0f4,Sound A,7845,1,comprehension
1831,red,46,,Sound A,Higher degree,neutral,160576,1757269335634,1757269175058,female,English,disjunctive,577a0a7aadbc7500015d2479,68bdccacd67ecff29871a858,68bdb7fd001027b66a95f0f4,Sound A,3617,2,comprehension
1831,red,46,,Sound A,Higher degree,neutral,160576,1757269335634,1757269175058,female,English,disjunctive,577a0a7aadbc7500015d2479,68bdccacd67ecff29871a858,68bdb7fd001027b66a95f0f4,Sound A,1257,3,comprehension
1831,red,46,,Sound B,Higher degree,neutral,160576,1757269335634,1757269175058,female,English,disjunctive,577a0a7aadbc7500015d2479,68bdccacd67ecff29871a858,68bdb7fd001027b66a95f0f4,Sound B,1550,4,comprehension
1831,red,46,,only the islanders know,Higher degree,neutral,160576,1757269335634,1757269175058,female,English,disjunctive,577a0a7aadbc7500015d2479,68bdccacd67ecff29871a858,68bdb7fd001027b66a95f0f4,90% for blue marbles and 10% for red marbles,13329,1,comprehension-2
1831,red,46,,FALSE,Higher degree,neutral,160576,1757269335634,1757269175058,female,English,disjunctive,577a0a7aadbc7500015d2479,68bdccacd67ecff29871a858,68bdb7fd001027b66a95f0f4,FALSE,3251,2,comprehension-2
1831,red,46,,NA,Higher degree,neutral,160576,1757269335634,1757269175058,female,English,disjunctive,577a0a7aadbc7500015d2479,68bdccacd67ecff29871a858,68bdb7fd001027b66a95f0f4,4,36578,1,critical
1844,blue,51,,Sound A,Graduated College,neutral,427881,1757269475762,1757269047881,female,,conjunctive,66a35864d80b66f563731c3e,68bdcc2a5971351a2f55e71f,68bdb7fd001027b66a95f0f4,Sound A,70820,1,comprehension
1844,blue,51,,Sound B,Graduated College,neutral,427881,1757269475762,1757269047881,female,,conjunctive,66a35864d80b66f563731c3e,68bdcc2a5971351a2f55e71f,68bdb7fd001027b66a95f0f4,Sound B,4595,2,comprehension
1844,blue,51,,Sound B,Graduated College,neutral,427881,1757269475762,1757269047881,female,,conjunctive,66a35864d80b66f563731c3e,68bdcc2a5971351a2f55e71f,68bdb7fd001027b66a95f0f4,Sound B,1663,3,comprehension
1844,blue,51,,Sound B,Graduated College,neutral,427881,1757269475762,1757269047881,female,,conjunctive,66a35864d80b66f563731c3e,68bdcc2a5971351a2f55e71f,68bdb7fd001027b66a95f0f4,Sound B,1318,4,comprehension
1844,blue,51,,only the islanders know,Graduated College,neutral,427881,1757269475762,1757269047881,female,,conjunctive,66a35864d80b66f563731c3e,68bdcc2a5971351a2f55e71f,68bdb7fd001027b66a95f0f4,90% for blue marbles and 10% for red marbles,27924,1,comprehension-2
1844,blue,51,,FALSE,Graduated College,neutral,427881,1757269475762,1757269047881,female,,conjunctive,66a35864d80b66f563731c3e,68bdcc2a5971351a2f55e71f,68bdb7fd001027b66a95f0f4,FALSE,7909,2,comprehension-2
1844,blue,51,,NA,Graduated College,neutral,427881,1757269475762,1757269047881,female,,conjunctive,66a35864d80b66f563731c3e,68bdcc2a5971351a2f55e71f,68bdb7fd001027b66a95f0f4,7,68540,1,critical
1845,red,40,,Sound A,Graduated High-school,unpleasant,317523,1757269485106,1757269167583,female,English,conjunctive,631610af8e747093cd90e00d,68bdcc968ced6d4b8ac6db2c,68bdb7fd001027b66a95f0f4,Sound A,8492,1,comprehension
1845,red,40,,Sound B,Graduated High-school,unpleasant,317523,1757269485106,1757269167583,female,English,conjunctive,631610af8e747093cd90e00d,68bdcc968ced6d4b8ac6db2c,68bdb7fd001027b66a95f0f4,Sound B,4856,2,comprehension
1845,red,40,,Sound B,Graduated High-school,unpleasant,317523,1757269485106,1757269167583,female,English,conjunctive,631610af8e747093cd90e00d,68bdcc968ced6d4b8ac6db2c,68bdb7fd001027b66a95f0f4,Sound B,1484,3,comprehension
1845,red,40,,Sound B,Graduated High-school,unpleasant,317523,1757269485106,1757269167583,female,English,conjunctive,631610af8e747093cd90e00d,68bdcc968ced6d4b8ac6db2c,68bdb7fd001027b66a95f0f4,Sound B,1264,4,comprehension
1845,red,40,,only the islanders know,Graduated High-school,unpleasant,317523,1757269485106,1757269167583,female,English,conjunctive,631610af8e747093cd90e00d,68bdcc968ced6d4b8ac6db2c,68bdb7fd001027b66a95f0f4,90% for blue marbles and 10% for red marbles,5966,1,comprehension-2
1845,red,40,,FALSE,Graduated High-school,unpleasant,317523,1757269485106,1757269167583,female,English,conjunctive,631610af8e747093cd90e00d,68bdcc968ced6d4b8ac6db2c,68bdb7fd001027b66a95f0f4,FALSE,6093,2,comprehension-2
1845,red,40,,NA,Graduated High-school,unpleasant,317523,1757269485106,1757269167583,female,English,conjunctive,631610af8e747093cd90e00d,68bdcc968ced6d4b8ac6db2c,68bdb7fd001027b66a95f0f4,4,43448,1,critical
1855,blue,52,,Sound A,Higher degree,unpleasant,319307,1757269606885,1757269287578,male,English,disjunctive,5dd1964987c1fd2082c4d88e,68bdcd1ecd640af732b65838,68bdb7fd001027b66a95f0f4,Sound A,13078,1,comprehension
1855,blue,52,,Sound A,Higher degree,unpleasant,319307,1757269606885,1757269287578,male,English,disjunctive,5dd1964987c1fd2082c4d88e,68bdcd1ecd640af732b65838,68bdb7fd001027b66a95f0f4,Sound A,15499,2,comprehension
1855,blue,52,,Sound A,Higher degree,unpleasant,319307,1757269606885,1757269287578,male,English,disjunctive,5dd1964987c1fd2082c4d88e,68bdcd1ecd640af732b65838,68bdb7fd001027b66a95f0f4,Sound A,6968,3,comprehension
1855,blue,52,,Sound B,Higher degree,unpleasant,319307,1757269606885,1757269287578,male,English,disjunctive,5dd1964987c1fd2082c4d88e,68bdcd1ecd640af732b65838,68bdb7fd001027b66a95f0f4,Sound B,4436,4,comprehension
1855,blue,52,,only the islanders know,Higher degree,unpleasant,319307,1757269606885,1757269287578,male,English,disjunctive,5dd1964987c1fd2082c4d88e,68bdcd1ecd640af732b65838,68bdb7fd001027b66a95f0f4,90% for blue marbles and 10% for red marbles,25586,1,comprehension-2
1855,blue,52,,FALSE,Higher degree,unpleasant,319307,1757269606885,1757269287578,male,English,disjunctive,5dd1964987c1fd2082c4d88e,68bdcd1ecd640af732b65838,68bdb7fd001027b66a95f0f4,FALSE,6269,2,comprehension-2
1855,blue,52,,NA,Higher degree,unpleasant,319307,1757269606885,1757269287578,male,English,disjunctive,5dd1964987c1fd2082c4d88e,68bdcd1ecd640af732b65838,68bdb7fd001027b66a95f0f4,4,53242,1,critical
1830,blue,33,,Sound A,Graduated High-school,unpleasant,157803,1757269331484,1757269173681,male,english,conjunctive,599da21f872eec00019569ff,68bdcca33f3882b14889c21c,68bdb7fd001027b66a95f0f4,Sound A,8239,1,comprehension
1830,blue,33,,Sound B,Graduated High-school,unpleasant,157803,1757269331484,1757269173681,male,english,conjunctive,599da21f872eec00019569ff,68bdcca33f3882b14889c21c,68bdb7fd001027b66a95f0f4,Sound B,7685,2,comprehension
1830,blue,33,,Sound B,Graduated High-school,unpleasant,157803,1757269331484,1757269173681,male,english,conjunctive,599da21f872eec00019569ff,68bdcca33f3882b14889c21c,68bdb7fd001027b66a95f0f4,Sound B,3129,3,comprehension
1830,blue,33,,Sound B,Graduated High-school,unpleasant,157803,1757269331484,1757269173681,male,english,conjunctive,599da21f872eec00019569ff,68bdcca33f3882b14889c21c,68bdb7fd001027b66a95f0f4,Sound B,1372,4,comprehension
1830,blue,33,,only the islanders know,Graduated High-school,unpleasant,157803,1757269331484,1757269173681,male,english,conjunctive,599da21f872eec00019569ff,68bdcca33f3882b14889c21c,68bdb7fd001027b66a95f0f4,90% for blue marbles and 10% for red marbles,10425,1,comprehension-2
1830,blue,33,,FALSE,Graduated High-school,unpleasant,157803,1757269331484,1757269173681,male,english,conjunctive,599da21f872eec00019569ff,68bdcca33f3882b14889c21c,68bdb7fd001027b66a95f0f4,FALSE,3194,2,comprehension-2
1830,blue,33,,NA,Graduated High-school,unpleasant,157803,1757269331484,1757269173681,male,english,conjunctive,599da21f872eec00019569ff,68bdcca33f3882b14889c21c,68bdb7fd001027b66a95f0f4,6,53754,1,critical
1839,red,70,,Sound A,Graduated College,pleasant,381814,1757269414916,1757269033102,female,English,disjunctive,5c49b156f5e26d0001479b44,68bdcc1ef1176059e01dbd13,68bdb7fd001027b66a95f0f4,Sound A,30864,1,comprehension
1839,red,70,,Sound A,Graduated College,pleasant,381814,1757269414916,1757269033102,female,English,disjunctive,5c49b156f5e26d0001479b44,68bdcc1ef1176059e01dbd13,68bdb7fd001027b66a95f0f4,Sound A,40028,2,comprehension
1839,red,70,,Sound A,Graduated College,pleasant,381814,1757269414916,1757269033102,female,English,disjunctive,5c49b156f5e26d0001479b44,68bdcc1ef1176059e01dbd13,68bdb7fd001027b66a95f0f4,Sound A,10704,3,comprehension
1839,red,70,,Sound B,Graduated College,pleasant,381814,1757269414916,1757269033102,female,English,disjunctive,5c49b156f5e26d0001479b44,68bdcc1ef1176059e01dbd13,68bdb7fd001027b66a95f0f4,Sound B,5676,4,comprehension
1839,red,70,,only the islanders know,Graduated College,pleasant,381814,1757269414916,1757269033102,female,English,disjunctive,5c49b156f5e26d0001479b44,68bdcc1ef1176059e01dbd13,68bdb7fd001027b66a95f0f4,only the islanders know,32636,1,comprehension-2
1839,red,70,,FALSE,Graduated College,pleasant,381814,1757269414916,1757269033102,female,English,disjunctive,5c49b156f5e26d0001479b44,68bdcc1ef1176059e01dbd13,68bdb7fd001027b66a95f0f4,FALSE,4368,2,comprehension-2
1839,red,70,,NA,Graduated College,pleasant,381814,1757269414916,1757269033102,female,English,disjunctive,5c49b156f5e26d0001479b44,68bdcc1ef1176059e01dbd13,68bdb7fd001027b66a95f0f4,4,94268,1,critical
1853,red,29,,Sound A,Graduated College,pleasant,338194,1757269576338,1757269238144,female,english,conjunctive,5e8eea7d2ee237000aef1557,68bdccdc10dd66fd4e5e1ce2,68bdb7fd001027b66a95f0f4,Sound A,12204,1,comprehension
1853,red,29,,Sound B,Graduated College,pleasant,338194,1757269576338,1757269238144,female,english,conjunctive,5e8eea7d2ee237000aef1557,68bdccdc10dd66fd4e5e1ce2,68bdb7fd001027b66a95f0f4,Sound B,1749,2,comprehension
1853,red,29,,Sound B,Graduated College,pleasant,338194,1757269576338,1757269238144,female,english,conjunctive,5e8eea7d2ee237000aef1557,68bdccdc10dd66fd4e5e1ce2,68bdb7fd001027b66a95f0f4,Sound B,2600,3,comprehension
1853,red,29,,Sound B,Graduated College,pleasant,338194,1757269576338,1757269238144,female,english,conjunctive,5e8eea7d2ee237000aef1557,68bdccdc10dd66fd4e5e1ce2,68bdb7fd001027b66a95f0f4,Sound B,1397,4,comprehension
1853,red,29,,only the islanders know,Graduated College,pleasant,338194,1757269576338,1757269238144,female,english,conjunctive,5e8eea7d2ee237000aef1557,68bdccdc10dd66fd4e5e1ce2,68bdb7fd001027b66a95f0f4,90% for blue marbles and 10% for red marbles,22803,1,comprehension-2
1853,red,29,,FALSE,Graduated College,pleasant,338194,1757269576338,1757269238144,female,english,conjunctive,5e8eea7d2ee237000aef1557,68bdccdc10dd66fd4e5e1ce2,68bdb7fd001027b66a95f0f4,FALSE,3900,2,comprehension-2
1853,red,29,,NA,Graduated College,pleasant,338194,1757269576338,1757269238144,female,english,conjunctive,5e8eea7d2ee237000aef1557,68bdccdc10dd66fd4e5e1ce2,68bdb7fd001027b66a95f0f4,2,52820,1,critical
1833,red,49,,Sound A,Graduated High-school,unpleasant,318143,1757269370962,1757269052819,female,English,conjunctive,614ad1d11ebbb70be136b832,68bdcc0f8389ce25338aeded,68bdb7fd001027b66a95f0f4,Sound A,12185,1,comprehension
1833,red,49,,Sound B,Graduated High-school,unpleasant,318143,1757269370962,1757269052819,female,English,conjunctive,614ad1d11ebbb70be136b832,68bdcc0f8389ce25338aeded,68bdb7fd001027b66a95f0f4,Sound B,1482,2,comprehension
1833,red,49,,Sound B,Graduated High-school,unpleasant,318143,1757269370962,1757269052819,female,English,conjunctive,614ad1d11ebbb70be136b832,68bdcc0f8389ce25338aeded,68bdb7fd001027b66a95f0f4,Sound B,1488,3,comprehension
1833,red,49,,Sound B,Graduated High-school,unpleasant,318143,1757269370962,1757269052819,female,English,conjunctive,614ad1d11ebbb70be136b832,68bdcc0f8389ce25338aeded,68bdb7fd001027b66a95f0f4,Sound B,928,4,comprehension
1833,red,49,,only the islanders know,Graduated High-school,unpleasant,318143,1757269370962,1757269052819,female,English,conjunctive,614ad1d11ebbb70be136b832,68bdcc0f8389ce25338aeded,68bdb7fd001027b66a95f0f4,only the islanders know,14633,1,comprehension-2
1833,red,49,,FALSE,Graduated High-school,unpleasant,318143,1757269370962,1757269052819,female,English,conjunctive,614ad1d11ebbb70be136b832,68bdcc0f8389ce25338aeded,68bdb7fd001027b66a95f0f4,FALSE,4434,2,comprehension-2
1833,red,49,,NA,Graduated High-school,unpleasant,318143,1757269370962,1757269052819,female,English,conjunctive,614ad1d11ebbb70be136b832,68bdcc0f8389ce25338aeded,68bdb7fd001027b66a95f0f4,6,44866,1,critical
1834,red,47,,Sound A,Graduated High-school,unpleasant,364444,1757269378146,1757269013702,male,English ,conjunctive,6659cc755e12f99a9efc39e5,68bdcc102a6eb977fe587517,68bdb7fd001027b66a95f0f4,Sound A,4105,1,comprehension
1834,red,47,,Sound B,Graduated High-school,unpleasant,364444,1757269378146,1757269013702,male,English ,conjunctive,6659cc755e12f99a9efc39e5,68bdcc102a6eb977fe587517,68bdb7fd001027b66a95f0f4,Sound B,1317,2,comprehension
1834,red,47,,Sound B,Graduated High-school,unpleasant,364444,1757269378146,1757269013702,male,English ,conjunctive,6659cc755e12f99a9efc39e5,68bdcc102a6eb977fe587517,68bdb7fd001027b66a95f0f4,Sound A,799,3,comprehension
1834,red,47,,Sound B,Graduated High-school,unpleasant,364444,1757269378146,1757269013702,male,English ,conjunctive,6659cc755e12f99a9efc39e5,68bdcc102a6eb977fe587517,68bdb7fd001027b66a95f0f4,Sound B,441,4,comprehension
1834,red,47,,only the islanders know,Graduated High-school,unpleasant,364444,1757269378146,1757269013702,male,English ,conjunctive,6659cc755e12f99a9efc39e5,68bdcc102a6eb977fe587517,68bdb7fd001027b66a95f0f4,only the islanders know,85449,1,comprehension-2
1834,red,47,,FALSE,Graduated High-school,unpleasant,364444,1757269378146,1757269013702,male,English ,conjunctive,6659cc755e12f99a9efc39e5,68bdcc102a6eb977fe587517,68bdb7fd001027b66a95f0f4,FALSE,5820,2,comprehension-2
1834,red,47,,NA,Graduated High-school,unpleasant,364444,1757269378146,1757269013702,male,English ,conjunctive,6659cc755e12f99a9efc39e5,68bdcc102a6eb977fe587517,68bdb7fd001027b66a95f0f4,4,14641,1,critical
1835,blue,58,,Sound A,Graduated College,unpleasant,322017,1757269377623,1757269055606,male,english,disjunctive,67000cb3400fef05a57718c7,68bdcc2beb363397858b9f02,68bdb7fd001027b66a95f0f4,Sound A,27650,1,comprehension
1835,blue,58,,Sound A,Graduated College,unpleasant,322017,1757269377623,1757269055606,male,english,disjunctive,67000cb3400fef05a57718c7,68bdcc2beb363397858b9f02,68bdb7fd001027b66a95f0f4,Sound A,8584,2,comprehension
1835,blue,58,,Sound A,Graduated College,unpleasant,322017,1757269377623,1757269055606,male,english,disjunctive,67000cb3400fef05a57718c7,68bdcc2beb363397858b9f02,68bdb7fd001027b66a95f0f4,Sound A,4051,3,comprehension
1835,blue,58,,Sound B,Graduated College,unpleasant,322017,1757269377623,1757269055606,male,english,disjunctive,67000cb3400fef05a57718c7,68bdcc2beb363397858b9f02,68bdb7fd001027b66a95f0f4,Sound B,1934,4,comprehension
1835,blue,58,,only the islanders know,Graduated College,unpleasant,322017,1757269377623,1757269055606,male,english,disjunctive,67000cb3400fef05a57718c7,68bdcc2beb363397858b9f02,68bdb7fd001027b66a95f0f4,90% for blue marbles and 10% for red marbles,13320,1,comprehension-2
1835,blue,58,,FALSE,Graduated College,unpleasant,322017,1757269377623,1757269055606,male,english,disjunctive,67000cb3400fef05a57718c7,68bdcc2beb363397858b9f02,68bdb7fd001027b66a95f0f4,FALSE,5442,2,comprehension-2
1835,blue,58,,NA,Graduated College,unpleasant,322017,1757269377623,1757269055606,male,english,disjunctive,67000cb3400fef05a57718c7,68bdcc2beb363397858b9f02,68bdb7fd001027b66a95f0f4,4,67624,1,critical
1840,blue,26,,Sound A,Higher degree,neutral,402075,1757269431054,1757269028979,male,English,disjunctive,664f5eda62408730a8836b4e,68bdcc185d2bbd45292839bd,68bdb7fd001027b66a95f0f4,Sound A,33745,1,comprehension
1840,blue,26,,Sound A,Higher degree,neutral,402075,1757269431054,1757269028979,male,English,disjunctive,664f5eda62408730a8836b4e,68bdcc185d2bbd45292839bd,68bdb7fd001027b66a95f0f4,Sound A,2648,2,comprehension
1840,blue,26,,Sound A,Higher degree,neutral,402075,1757269431054,1757269028979,male,English,disjunctive,664f5eda62408730a8836b4e,68bdcc185d2bbd45292839bd,68bdb7fd001027b66a95f0f4,Sound A,1840,3,comprehension
1840,blue,26,,Sound B,Higher degree,neutral,402075,1757269431054,1757269028979,male,English,disjunctive,664f5eda62408730a8836b4e,68bdcc185d2bbd45292839bd,68bdb7fd001027b66a95f0f4,Sound B,1224,4,comprehension
1840,blue,26,,only the islanders know,Higher degree,neutral,402075,1757269431054,1757269028979,male,English,disjunctive,664f5eda62408730a8836b4e,68bdcc185d2bbd45292839bd,68bdb7fd001027b66a95f0f4,only the islanders know,9156,1,comprehension-2
1840,blue,26,,FALSE,Higher degree,neutral,402075,1757269431054,1757269028979,male,English,disjunctive,664f5eda62408730a8836b4e,68bdcc185d2bbd45292839bd,68bdb7fd001027b66a95f0f4,FALSE,2594,2,comprehension-2
1840,blue,26,,NA,Higher degree,neutral,402075,1757269431054,1757269028979,male,English,disjunctive,664f5eda62408730a8836b4e,68bdcc185d2bbd45292839bd,68bdb7fd001027b66a95f0f4,2,66411,1,critical
1841,red,52,,Sound A,Graduated High-school,pleasant,377601,1757269438751,1757269061150,male,English,conjunctive,576311d7151e5d000889e2e7,68bdcc2cc00f4a1426a63872,68bdb7fd001027b66a95f0f4,Sound A,18911,1,comprehension
1841,red,52,,Sound B,Graduated High-school,pleasant,377601,1757269438751,1757269061150,male,English,conjunctive,576311d7151e5d000889e2e7,68bdcc2cc00f4a1426a63872,68bdb7fd001027b66a95f0f4,Sound B,2648,2,comprehension
1841,red,52,,Sound B,Graduated High-school,pleasant,377601,1757269438751,1757269061150,male,English,conjunctive,576311d7151e5d000889e2e7,68bdcc2cc00f4a1426a63872,68bdb7fd001027b66a95f0f4,Sound B,2956,3,comprehension
1841,red,52,,Sound B,Graduated High-school,pleasant,377601,1757269438751,1757269061150,male,English,conjunctive,576311d7151e5d000889e2e7,68bdcc2cc00f4a1426a63872,68bdb7fd001027b66a95f0f4,Sound B,3409,4,comprehension
1841,red,52,,only the islanders know,Graduated High-school,pleasant,377601,1757269438751,1757269061150,male,English,conjunctive,576311d7151e5d000889e2e7,68bdcc2cc00f4a1426a63872,68bdb7fd001027b66a95f0f4,only the islanders know,28849,1,comprehension-2
1841,red,52,,FALSE,Graduated High-school,pleasant,377601,1757269438751,1757269061150,male,English,conjunctive,576311d7151e5d000889e2e7,68bdcc2cc00f4a1426a63872,68bdb7fd001027b66a95f0f4,FALSE,5465,2,comprehension-2
1841,red,52,,NA,Graduated High-school,pleasant,377601,1757269438751,1757269061150,male,English,conjunctive,576311d7151e5d000889e2e7,68bdcc2cc00f4a1426a63872,68bdb7fd001027b66a95f0f4,6,64293,1,critical
1842,blue,51,,Sound A,Graduated College,neutral,387091,1757269444158,1757269057067,female,English,disjunctive,680e1b9a36b987121bbc9c9a,68bdcc19645672498d447119,68bdb7fd001027b66a95f0f4,Sound A,17134,1,comprehension
1842,blue,51,,Sound A,Graduated College,neutral,387091,1757269444158,1757269057067,female,English,disjunctive,680e1b9a36b987121bbc9c9a,68bdcc19645672498d447119,68bdb7fd001027b66a95f0f4,Sound A,4550,2,comprehension
1842,blue,51,,Sound A,Graduated College,neutral,387091,1757269444158,1757269057067,female,English,disjunctive,680e1b9a36b987121bbc9c9a,68bdcc19645672498d447119,68bdb7fd001027b66a95f0f4,Sound A,4598,3,comprehension
1842,blue,51,,Sound B,Graduated College,neutral,387091,1757269444158,1757269057067,female,English,disjunctive,680e1b9a36b987121bbc9c9a,68bdcc19645672498d447119,68bdb7fd001027b66a95f0f4,Sound B,3803,4,comprehension
1842,blue,51,,only the islanders know,Graduated College,neutral,387091,1757269444158,1757269057067,female,English,disjunctive,680e1b9a36b987121bbc9c9a,68bdcc19645672498d447119,68bdb7fd001027b66a95f0f4,90% for blue marbles and 10% for red marbles,44804,1,comprehension-2
1842,blue,51,,FALSE,Graduated College,neutral,387091,1757269444158,1757269057067,female,English,disjunctive,680e1b9a36b987121bbc9c9a,68bdcc19645672498d447119,68bdb7fd001027b66a95f0f4,FALSE,5351,2,comprehension-2
1842,blue,51,,NA,Graduated College,neutral,387091,1757269444158,1757269057067,female,English,disjunctive,680e1b9a36b987121bbc9c9a,68bdcc19645672498d447119,68bdb7fd001027b66a95f0f4,7,76774,1,critical
1849,red,38,Interesting study!,Sound A,Graduated College,unpleasant,458924,1757269516505,1757269057581,female,English,disjunctive,67c741690c66e5b2b93bcc9d,68bdcc1df6b34642f2b63b25,68bdb7fd001027b66a95f0f4,Sound A,15295,1,comprehension
1849,red,38,Interesting study!,Sound A,Graduated College,unpleasant,458924,1757269516505,1757269057581,female,English,disjunctive,67c741690c66e5b2b93bcc9d,68bdcc1df6b34642f2b63b25,68bdb7fd001027b66a95f0f4,Sound A,3435,2,comprehension
1849,red,38,Interesting study!,Sound A,Graduated College,unpleasant,458924,1757269516505,1757269057581,female,English,disjunctive,67c741690c66e5b2b93bcc9d,68bdcc1df6b34642f2b63b25,68bdb7fd001027b66a95f0f4,Sound A,4064,3,comprehension
1849,red,38,Interesting study!,Sound B,Graduated College,unpleasant,458924,1757269516505,1757269057581,female,English,disjunctive,67c741690c66e5b2b93bcc9d,68bdcc1df6b34642f2b63b25,68bdb7fd001027b66a95f0f4,Sound B,2563,4,comprehension
1849,red,38,Interesting study!,only the islanders know,Graduated College,unpleasant,458924,1757269516505,1757269057581,female,English,disjunctive,67c741690c66e5b2b93bcc9d,68bdcc1df6b34642f2b63b25,68bdb7fd001027b66a95f0f4,90% for blue marbles and 10% for red marbles,39544,1,comprehension-2
1849,red,38,Interesting study!,FALSE,Graduated College,unpleasant,458924,1757269516505,1757269057581,female,English,disjunctive,67c741690c66e5b2b93bcc9d,68bdcc1df6b34642f2b63b25,68bdb7fd001027b66a95f0f4,FALSE,10001,2,comprehension-2
1849,red,38,Interesting study!,NA,Graduated College,unpleasant,458924,1757269516505,1757269057581,female,English,disjunctive,67c741690c66e5b2b93bcc9d,68bdcc1df6b34642f2b63b25,68bdb7fd001027b66a95f0f4,3,130951,1,critical
1850,blue,54,N/A,Sound A,Higher degree,unpleasant,391918,1757269516876,1757269124958,female,English,disjunctive,62d17e863da2a9a6b1847075,68bdcc518e84d13ae83112da,68bdb7fd001027b66a95f0f4,Sound A,27737,1,comprehension
1850,blue,54,N/A,Sound A,Higher degree,unpleasant,391918,1757269516876,1757269124958,female,English,disjunctive,62d17e863da2a9a6b1847075,68bdcc518e84d13ae83112da,68bdb7fd001027b66a95f0f4,Sound B,27792,2,comprehension
1850,blue,54,N/A,Sound A,Higher degree,unpleasant,391918,1757269516876,1757269124958,female,English,disjunctive,62d17e863da2a9a6b1847075,68bdcc518e84d13ae83112da,68bdb7fd001027b66a95f0f4,Sound B,12793,3,comprehension
1850,blue,54,N/A,Sound B,Higher degree,unpleasant,391918,1757269516876,1757269124958,female,English,disjunctive,62d17e863da2a9a6b1847075,68bdcc518e84d13ae83112da,68bdb7fd001027b66a95f0f4,Sound B,6216,4,comprehension
1850,blue,54,N/A,only the islanders know,Higher degree,unpleasant,391918,1757269516876,1757269124958,female,English,disjunctive,62d17e863da2a9a6b1847075,68bdcc518e84d13ae83112da,68bdb7fd001027b66a95f0f4,90% for red marbles and 10% for blue marbles,20581,1,comprehension-2
1850,blue,54,N/A,FALSE,Higher degree,unpleasant,391918,1757269516876,1757269124958,female,English,disjunctive,62d17e863da2a9a6b1847075,68bdcc518e84d13ae83112da,68bdb7fd001027b66a95f0f4,FALSE,7915,2,comprehension-2
1850,blue,54,N/A,NA,Higher degree,unpleasant,391918,1757269516876,1757269124958,female,English,disjunctive,62d17e863da2a9a6b1847075,68bdcc518e84d13ae83112da,68bdb7fd001027b66a95f0f4,1,119594,1,critical
1851,blue,54,,Sound A,Graduated College,unpleasant,296455,1757269521829,1757269225374,male,English,disjunctive,637e3bedd8c3601a81a65889,68bdccc794ce146172b721cf,68bdb7fd001027b66a95f0f4,Sound A,21561,1,comprehension
1851,blue,54,,Sound A,Graduated College,unpleasant,296455,1757269521829,1757269225374,male,English,disjunctive,637e3bedd8c3601a81a65889,68bdccc794ce146172b721cf,68bdb7fd001027b66a95f0f4,Sound A,10308,2,comprehension
1851,blue,54,,Sound A,Graduated College,unpleasant,296455,1757269521829,1757269225374,male,English,disjunctive,637e3bedd8c3601a81a65889,68bdccc794ce146172b721cf,68bdb7fd001027b66a95f0f4,Sound A,3260,3,comprehension
1851,blue,54,,Sound B,Graduated College,unpleasant,296455,1757269521829,1757269225374,male,English,disjunctive,637e3bedd8c3601a81a65889,68bdccc794ce146172b721cf,68bdb7fd001027b66a95f0f4,Sound B,3264,4,comprehension
1851,blue,54,,only the islanders know,Graduated College,unpleasant,296455,1757269521829,1757269225374,male,English,disjunctive,637e3bedd8c3601a81a65889,68bdccc794ce146172b721cf,68bdb7fd001027b66a95f0f4,only the islanders know,9025,1,comprehension-2
1851,blue,54,,FALSE,Graduated College,unpleasant,296455,1757269521829,1757269225374,male,English,disjunctive,637e3bedd8c3601a81a65889,68bdccc794ce146172b721cf,68bdb7fd001027b66a95f0f4,FALSE,4344,2,comprehension-2
1851,blue,54,,NA,Graduated College,unpleasant,296455,1757269521829,1757269225374,male,English,disjunctive,637e3bedd8c3601a81a65889,68bdccc794ce146172b721cf,68bdb7fd001027b66a95f0f4,4,71066,1,critical
1843,blue,42,"This seems like it's set up to be 50/50, so no matter what pops up, you can't be sure about the true answer.",Sound A,Graduated College,neutral,302136,1757269453326,1757269151190,male,English,disjunctive,64275e53f51a5ed4f6b7d019,68bdcc93a374e6f53cfa64e0,68bdb7fd001027b66a95f0f4,Sound A,19388,1,comprehension
1843,blue,42,"This seems like it's set up to be 50/50, so no matter what pops up, you can't be sure about the true answer.",Sound A,Graduated College,neutral,302136,1757269453326,1757269151190,male,English,disjunctive,64275e53f51a5ed4f6b7d019,68bdcc93a374e6f53cfa64e0,68bdb7fd001027b66a95f0f4,Sound A,5038,2,comprehension
1843,blue,42,"This seems like it's set up to be 50/50, so no matter what pops up, you can't be sure about the true answer.",Sound A,Graduated College,neutral,302136,1757269453326,1757269151190,male,English,disjunctive,64275e53f51a5ed4f6b7d019,68bdcc93a374e6f53cfa64e0,68bdb7fd001027b66a95f0f4,Sound B,5731,3,comprehension
1843,blue,42,"This seems like it's set up to be 50/50, so no matter what pops up, you can't be sure about the true answer.",Sound B,Graduated College,neutral,302136,1757269453326,1757269151190,male,English,disjunctive,64275e53f51a5ed4f6b7d019,68bdcc93a374e6f53cfa64e0,68bdb7fd001027b66a95f0f4,Sound A,7317,4,comprehension
1843,blue,42,"This seems like it's set up to be 50/50, so no matter what pops up, you can't be sure about the true answer.",only the islanders know,Graduated College,neutral,302136,1757269453326,1757269151190,male,English,disjunctive,64275e53f51a5ed4f6b7d019,68bdcc93a374e6f53cfa64e0,68bdb7fd001027b66a95f0f4,only the islanders know,13759,1,comprehension-2
1843,blue,42,"This seems like it's set up to be 50/50, so no matter what pops up, you can't be sure about the true answer.",FALSE,Graduated College,neutral,302136,1757269453326,1757269151190,male,English,disjunctive,64275e53f51a5ed4f6b7d019,68bdcc93a374e6f53cfa64e0,68bdb7fd001027b66a95f0f4,FALSE,3339,2,comprehension-2
1843,blue,42,"This seems like it's set up to be 50/50, so no matter what pops up, you can't be sure about the true answer.",NA,Graduated College,neutral,302136,1757269453326,1757269151190,male,English,disjunctive,64275e53f51a5ed4f6b7d019,68bdcc93a374e6f53cfa64e0,68bdb7fd001027b66a95f0f4,4,50815,1,critical
1846,blue,34,,Sound A,Higher degree,unpleasant,217754,1757269484903,1757269267149,male,english,disjunctive,59a5b35c5954130001582a40,68bdccc4e8cb7e2878e1b4e2,68bdb7fd001027b66a95f0f4,Sound A,8400,1,comprehension
1846,blue,34,,Sound A,Higher degree,unpleasant,217754,1757269484903,1757269267149,male,english,disjunctive,59a5b35c5954130001582a40,68bdccc4e8cb7e2878e1b4e2,68bdb7fd001027b66a95f0f4,Sound A,3650,2,comprehension
1846,blue,34,,Sound A,Higher degree,unpleasant,217754,1757269484903,1757269267149,male,english,disjunctive,59a5b35c5954130001582a40,68bdccc4e8cb7e2878e1b4e2,68bdb7fd001027b66a95f0f4,Sound A,1467,3,comprehension
1846,blue,34,,Sound B,Higher degree,unpleasant,217754,1757269484903,1757269267149,male,english,disjunctive,59a5b35c5954130001582a40,68bdccc4e8cb7e2878e1b4e2,68bdb7fd001027b66a95f0f4,Sound B,1483,4,comprehension
1846,blue,34,,only the islanders know,Higher degree,unpleasant,217754,1757269484903,1757269267149,male,english,disjunctive,59a5b35c5954130001582a40,68bdccc4e8cb7e2878e1b4e2,68bdb7fd001027b66a95f0f4,only the islanders know,21584,1,comprehension-2
1846,blue,34,,FALSE,Higher degree,unpleasant,217754,1757269484903,1757269267149,male,english,disjunctive,59a5b35c5954130001582a40,68bdccc4e8cb7e2878e1b4e2,68bdb7fd001027b66a95f0f4,FALSE,3383,2,comprehension-2
1846,blue,34,,NA,Higher degree,unpleasant,217754,1757269484903,1757269267149,male,english,disjunctive,59a5b35c5954130001582a40,68bdccc4e8cb7e2878e1b4e2,68bdb7fd001027b66a95f0f4,4,45601,1,critical
1847,blue,60,,Sound A,Graduated High-school,pleasant,296277,1757269492442,1757269196165,male,,conjunctive,58954e2dc88c680001dd4b7e,68bdcc9f50fc179eb57bc56f,68bdb7fd001027b66a95f0f4,Sound A,5615,1,comprehension
1847,blue,60,,Sound B,Graduated High-school,pleasant,296277,1757269492442,1757269196165,male,,conjunctive,58954e2dc88c680001dd4b7e,68bdcc9f50fc179eb57bc56f,68bdb7fd001027b66a95f0f4,Sound A,1167,2,comprehension
1847,blue,60,,Sound B,Graduated High-school,pleasant,296277,1757269492442,1757269196165,male,,conjunctive,58954e2dc88c680001dd4b7e,68bdcc9f50fc179eb57bc56f,68bdb7fd001027b66a95f0f4,Sound B,8589,3,comprehension
1847,blue,60,,Sound B,Graduated High-school,pleasant,296277,1757269492442,1757269196165,male,,conjunctive,58954e2dc88c680001dd4b7e,68bdcc9f50fc179eb57bc56f,68bdb7fd001027b66a95f0f4,Sound B,1189,4,comprehension
1847,blue,60,,only the islanders know,Graduated High-school,pleasant,296277,1757269492442,1757269196165,male,,conjunctive,58954e2dc88c680001dd4b7e,68bdcc9f50fc179eb57bc56f,68bdb7fd001027b66a95f0f4,only the islanders know,8917,1,comprehension-2
1847,blue,60,,FALSE,Graduated High-school,pleasant,296277,1757269492442,1757269196165,male,,conjunctive,58954e2dc88c680001dd4b7e,68bdcc9f50fc179eb57bc56f,68bdb7fd001027b66a95f0f4,TRUE,4855,2,comprehension-2
1847,blue,60,,NA,Graduated High-school,pleasant,296277,1757269492442,1757269196165,male,,conjunctive,58954e2dc88c680001dd4b7e,68bdcc9f50fc179eb57bc56f,68bdb7fd001027b66a95f0f4,7,77464,1,critical
1848,red,47,,Sound A,Graduated College,pleasant,220322,1757269497345,1757269277023,female,english,disjunctive,5d46c3ac090549001867b746,68bdcd1464e9eaa5ac72ab17,68bdb7fd001027b66a95f0f4,Sound A,16425,1,comprehension
1848,red,47,,Sound A,Graduated College,pleasant,220322,1757269497345,1757269277023,female,english,disjunctive,5d46c3ac090549001867b746,68bdcd1464e9eaa5ac72ab17,68bdb7fd001027b66a95f0f4,Sound B,2376,2,comprehension
1848,red,47,,Sound A,Graduated College,pleasant,220322,1757269497345,1757269277023,female,english,disjunctive,5d46c3ac090549001867b746,68bdcd1464e9eaa5ac72ab17,68bdb7fd001027b66a95f0f4,Sound B,13210,3,comprehension
1848,red,47,,Sound B,Graduated College,pleasant,220322,1757269497345,1757269277023,female,english,disjunctive,5d46c3ac090549001867b746,68bdcd1464e9eaa5ac72ab17,68bdb7fd001027b66a95f0f4,Sound B,6049,4,comprehension
1848,red,47,,only the islanders know,Graduated College,pleasant,220322,1757269497345,1757269277023,female,english,disjunctive,5d46c3ac090549001867b746,68bdcd1464e9eaa5ac72ab17,68bdb7fd001027b66a95f0f4,90% for blue marbles and 10% for red marbles,15978,1,comprehension-2
1848,red,47,,FALSE,Graduated College,pleasant,220322,1757269497345,1757269277023,female,english,disjunctive,5d46c3ac090549001867b746,68bdcd1464e9eaa5ac72ab17,68bdb7fd001027b66a95f0f4,FALSE,6922,2,comprehension-2
1848,red,47,,NA,Graduated College,pleasant,220322,1757269497345,1757269277023,female,english,disjunctive,5d46c3ac090549001867b746,68bdcd1464e9eaa5ac72ab17,68bdb7fd001027b66a95f0f4,2,35299,1,critical
1854,blue,26,No comment,Sound A,Higher degree,pleasant,506383,1757269589380,1757269082997,male,English,conjunctive,60a8bd22d03adbe92cbb9a5e,68bdcc0d4e898bb9422807af,68bdb7fd001027b66a95f0f4,Sound A,11357,1,comprehension
1854,blue,26,No comment,Sound B,Higher degree,pleasant,506383,1757269589380,1757269082997,male,English,conjunctive,60a8bd22d03adbe92cbb9a5e,68bdcc0d4e898bb9422807af,68bdb7fd001027b66a95f0f4,Sound B,2550,2,comprehension
1854,blue,26,No comment,Sound B,Higher degree,pleasant,506383,1757269589380,1757269082997,male,English,conjunctive,60a8bd22d03adbe92cbb9a5e,68bdcc0d4e898bb9422807af,68bdb7fd001027b66a95f0f4,Sound B,1981,3,comprehension
1854,blue,26,No comment,Sound B,Higher degree,pleasant,506383,1757269589380,1757269082997,male,English,conjunctive,60a8bd22d03adbe92cbb9a5e,68bdcc0d4e898bb9422807af,68bdb7fd001027b66a95f0f4,Sound B,1769,4,comprehension
1854,blue,26,No comment,only the islanders know,Higher degree,pleasant,506383,1757269589380,1757269082997,male,English,conjunctive,60a8bd22d03adbe92cbb9a5e,68bdcc0d4e898bb9422807af,68bdb7fd001027b66a95f0f4,90% for blue marbles and 10% for red marbles,20513,1,comprehension-2
1854,blue,26,No comment,FALSE,Higher degree,pleasant,506383,1757269589380,1757269082997,male,English,conjunctive,60a8bd22d03adbe92cbb9a5e,68bdcc0d4e898bb9422807af,68bdb7fd001027b66a95f0f4,FALSE,4182,2,comprehension-2
1854,blue,26,No comment,NA,Higher degree,pleasant,506383,1757269589380,1757269082997,male,English,conjunctive,60a8bd22d03adbe92cbb9a5e,68bdcc0d4e898bb9422807af,68bdb7fd001027b66a95f0f4,4,82782,1,critical
1856,red,45,,Sound A,Higher degree,unpleasant,451697,1757269617407,1757269165710,female,English,disjunctive,67464a428b30af4bc2dd414a,68bdcca2ace63ddaa2afe9f4,68bdb7fd001027b66a95f0f4,Sound A,28170,1,comprehension
1856,red,45,,Sound A,Higher degree,unpleasant,451697,1757269617407,1757269165710,female,English,disjunctive,67464a428b30af4bc2dd414a,68bdcca2ace63ddaa2afe9f4,68bdb7fd001027b66a95f0f4,Sound B,8925,2,comprehension
1856,red,45,,Sound A,Higher degree,unpleasant,451697,1757269617407,1757269165710,female,English,disjunctive,67464a428b30af4bc2dd414a,68bdcca2ace63ddaa2afe9f4,68bdb7fd001027b66a95f0f4,Sound B,5674,3,comprehension
1856,red,45,,Sound B,Higher degree,unpleasant,451697,1757269617407,1757269165710,female,English,disjunctive,67464a428b30af4bc2dd414a,68bdcca2ace63ddaa2afe9f4,68bdb7fd001027b66a95f0f4,Sound B,5105,4,comprehension
1856,red,45,,only the islanders know,Higher degree,unpleasant,451697,1757269617407,1757269165710,female,English,disjunctive,67464a428b30af4bc2dd414a,68bdcca2ace63ddaa2afe9f4,68bdb7fd001027b66a95f0f4,90% for blue marbles and 10% for red marbles,68836,1,comprehension-2
1856,red,45,,FALSE,Higher degree,unpleasant,451697,1757269617407,1757269165710,female,English,disjunctive,67464a428b30af4bc2dd414a,68bdcca2ace63ddaa2afe9f4,68bdb7fd001027b66a95f0f4,FALSE,11482,2,comprehension-2
1856,red,45,,NA,Higher degree,unpleasant,451697,1757269617407,1757269165710,female,English,disjunctive,67464a428b30af4bc2dd414a,68bdcca2ace63ddaa2afe9f4,68bdb7fd001027b66a95f0f4,4,102248,1,critical
1857,red,35,,Sound A,Graduated College,neutral,555369,1757269622658,1757269067289,male,English,conjunctive,572f526c3c27e7000e0b8aaa,68bdcc2e652aaa480ce24e62,68bdb7fd001027b66a95f0f4,Sound A,15371,1,comprehension
1857,red,35,,Sound B,Graduated College,neutral,555369,1757269622658,1757269067289,male,English,conjunctive,572f526c3c27e7000e0b8aaa,68bdcc2e652aaa480ce24e62,68bdb7fd001027b66a95f0f4,Sound A,4081,2,comprehension
1857,red,35,,Sound B,Graduated College,neutral,555369,1757269622658,1757269067289,male,English,conjunctive,572f526c3c27e7000e0b8aaa,68bdcc2e652aaa480ce24e62,68bdb7fd001027b66a95f0f4,Sound B,1797,3,comprehension
1857,red,35,,Sound B,Graduated College,neutral,555369,1757269622658,1757269067289,male,English,conjunctive,572f526c3c27e7000e0b8aaa,68bdcc2e652aaa480ce24e62,68bdb7fd001027b66a95f0f4,Sound A,1341,4,comprehension
1857,red,35,,only the islanders know,Graduated College,neutral,555369,1757269622658,1757269067289,male,English,conjunctive,572f526c3c27e7000e0b8aaa,68bdcc2e652aaa480ce24e62,68bdb7fd001027b66a95f0f4,90% for blue marbles and 10% for red marbles,20843,1,comprehension-2
1857,red,35,,FALSE,Graduated College,neutral,555369,1757269622658,1757269067289,male,English,conjunctive,572f526c3c27e7000e0b8aaa,68bdcc2e652aaa480ce24e62,68bdb7fd001027b66a95f0f4,FALSE,13734,2,comprehension-2
1857,red,35,,NA,Graduated College,neutral,555369,1757269622658,1757269067289,male,English,conjunctive,572f526c3c27e7000e0b8aaa,68bdcc2e652aaa480ce24e62,68bdb7fd001027b66a95f0f4,3,76982,1,critical
1858,blue,56,I think I misscliced at one point as I thought clicking would play the melody oops,Sound A,Graduated College,pleasant,493663,1757269646749,1757269153086,male,English,conjunctive,66d8b1917c364ec10c95a0c6,68bdcc6f6500f2eff4482477,68bdb7fd001027b66a95f0f4,Sound A,7692,1,comprehension
1858,blue,56,I think I misscliced at one point as I thought clicking would play the melody oops,Sound B,Graduated College,pleasant,493663,1757269646749,1757269153086,male,English,conjunctive,66d8b1917c364ec10c95a0c6,68bdcc6f6500f2eff4482477,68bdb7fd001027b66a95f0f4,Sound A,2085,2,comprehension
1858,blue,56,I think I misscliced at one point as I thought clicking would play the melody oops,Sound B,Graduated College,pleasant,493663,1757269646749,1757269153086,male,English,conjunctive,66d8b1917c364ec10c95a0c6,68bdcc6f6500f2eff4482477,68bdb7fd001027b66a95f0f4,Sound B,9928,3,comprehension
1858,blue,56,I think I misscliced at one point as I thought clicking would play the melody oops,Sound B,Graduated College,pleasant,493663,1757269646749,1757269153086,male,English,conjunctive,66d8b1917c364ec10c95a0c6,68bdcc6f6500f2eff4482477,68bdb7fd001027b66a95f0f4,Sound B,1827,4,comprehension
1858,blue,56,I think I misscliced at one point as I thought clicking would play the melody oops,only the islanders know,Graduated College,pleasant,493663,1757269646749,1757269153086,male,English,conjunctive,66d8b1917c364ec10c95a0c6,68bdcc6f6500f2eff4482477,68bdb7fd001027b66a95f0f4,90% for blue marbles and 10% for red marbles,16017,1,comprehension-2
1858,blue,56,I think I misscliced at one point as I thought clicking would play the melody oops,FALSE,Graduated College,pleasant,493663,1757269646749,1757269153086,male,English,conjunctive,66d8b1917c364ec10c95a0c6,68bdcc6f6500f2eff4482477,68bdb7fd001027b66a95f0f4,FALSE,4784,2,comprehension-2
1858,blue,56,I think I misscliced at one point as I thought clicking would play the melody oops,NA,Graduated College,pleasant,493663,1757269646749,1757269153086,male,English,conjunctive,66d8b1917c364ec10c95a0c6,68bdcc6f6500f2eff4482477,68bdb7fd001027b66a95f0f4,2,81872,1,critical
1859,blue,52,N/A,Sound A,Graduated High-school,unpleasant,309093,1757269649325,1757269340232,female,English,conjunctive,5cfbf333ac28dd00196e807b,68bdcc15603557f108880773,68bdb7fd001027b66a95f0f4,Sound A,18727,1,comprehension
1859,blue,52,N/A,Sound B,Graduated High-school,unpleasant,309093,1757269649325,1757269340232,female,English,conjunctive,5cfbf333ac28dd00196e807b,68bdcc15603557f108880773,68bdb7fd001027b66a95f0f4,Sound B,8079,2,comprehension
1859,blue,52,N/A,Sound B,Graduated High-school,unpleasant,309093,1757269649325,1757269340232,female,English,conjunctive,5cfbf333ac28dd00196e807b,68bdcc15603557f108880773,68bdb7fd001027b66a95f0f4,Sound B,5780,3,comprehension
1859,blue,52,N/A,Sound B,Graduated High-school,unpleasant,309093,1757269649325,1757269340232,female,English,conjunctive,5cfbf333ac28dd00196e807b,68bdcc15603557f108880773,68bdb7fd001027b66a95f0f4,Sound B,4484,4,comprehension
1859,blue,52,N/A,only the islanders know,Graduated High-school,unpleasant,309093,1757269649325,1757269340232,female,English,conjunctive,5cfbf333ac28dd00196e807b,68bdcc15603557f108880773,68bdb7fd001027b66a95f0f4,90% for blue marbles and 10% for red marbles,13206,1,comprehension-2
1859,blue,52,N/A,FALSE,Graduated High-school,unpleasant,309093,1757269649325,1757269340232,female,English,conjunctive,5cfbf333ac28dd00196e807b,68bdcc15603557f108880773,68bdb7fd001027b66a95f0f4,FALSE,4398,2,comprehension-2
1859,blue,52,N/A,NA,Graduated High-school,unpleasant,309093,1757269649325,1757269340232,female,English,conjunctive,5cfbf333ac28dd00196e807b,68bdcc15603557f108880773,68bdb7fd001027b66a95f0f4,4,48039,1,critical
1860,blue,61,,Sound A,Graduated High-school,pleasant,156430,1757269658382,1757269501952,female,English,conjunctive,5641c95d17bdbe00102a0b51,68bdcdf51dba05c9585ef3a7,68bdb7fd001027b66a95f0f4,Sound A,8365,1,comprehension
1860,blue,61,,Sound B,Graduated High-school,pleasant,156430,1757269658382,1757269501952,female,English,conjunctive,5641c95d17bdbe00102a0b51,68bdcdf51dba05c9585ef3a7,68bdb7fd001027b66a95f0f4,Sound B,2783,2,comprehension
1860,blue,61,,Sound B,Graduated High-school,pleasant,156430,1757269658382,1757269501952,female,English,conjunctive,5641c95d17bdbe00102a0b51,68bdcdf51dba05c9585ef3a7,68bdb7fd001027b66a95f0f4,Sound B,1129,3,comprehension
1860,blue,61,,Sound B,Graduated High-school,pleasant,156430,1757269658382,1757269501952,female,English,conjunctive,5641c95d17bdbe00102a0b51,68bdcdf51dba05c9585ef3a7,68bdb7fd001027b66a95f0f4,Sound B,1023,4,comprehension
1860,blue,61,,only the islanders know,Graduated High-school,pleasant,156430,1757269658382,1757269501952,female,English,conjunctive,5641c95d17bdbe00102a0b51,68bdcdf51dba05c9585ef3a7,68bdb7fd001027b66a95f0f4,only the islanders know,5758,1,comprehension-2
1860,blue,61,,FALSE,Graduated High-school,pleasant,156430,1757269658382,1757269501952,female,English,conjunctive,5641c95d17bdbe00102a0b51,68bdcdf51dba05c9585ef3a7,68bdb7fd001027b66a95f0f4,FALSE,3263,2,comprehension-2
1860,blue,61,,NA,Graduated High-school,pleasant,156430,1757269658382,1757269501952,female,English,conjunctive,5641c95d17bdbe00102a0b51,68bdcdf51dba05c9585ef3a7,68bdb7fd001027b66a95f0f4,2,22419,1,critical
1861,red,43,,Sound A,Higher degree,pleasant,272886,1757269688929,1757269416043,male,English,disjunctive,5e3e38e3c10d050a4e590bdc,68bdcda0248b8fa804c64d0e,68bdb7fd001027b66a95f0f4,Sound A,23507,1,comprehension
1861,red,43,,Sound A,Higher degree,pleasant,272886,1757269688929,1757269416043,male,English,disjunctive,5e3e38e3c10d050a4e590bdc,68bdcda0248b8fa804c64d0e,68bdb7fd001027b66a95f0f4,Sound A,13908,2,comprehension
1861,red,43,,Sound A,Higher degree,pleasant,272886,1757269688929,1757269416043,male,English,disjunctive,5e3e38e3c10d050a4e590bdc,68bdcda0248b8fa804c64d0e,68bdb7fd001027b66a95f0f4,Sound A,5050,3,comprehension
1861,red,43,,Sound B,Higher degree,pleasant,272886,1757269688929,1757269416043,male,English,disjunctive,5e3e38e3c10d050a4e590bdc,68bdcda0248b8fa804c64d0e,68bdb7fd001027b66a95f0f4,Sound B,2666,4,comprehension
1861,red,43,,only the islanders know,Higher degree,pleasant,272886,1757269688929,1757269416043,male,English,disjunctive,5e3e38e3c10d050a4e590bdc,68bdcda0248b8fa804c64d0e,68bdb7fd001027b66a95f0f4,only the islanders know,23921,1,comprehension-2
1861,red,43,,FALSE,Higher degree,pleasant,272886,1757269688929,1757269416043,male,English,disjunctive,5e3e38e3c10d050a4e590bdc,68bdcda0248b8fa804c64d0e,68bdb7fd001027b66a95f0f4,FALSE,6382,2,comprehension-2
1861,red,43,,NA,Higher degree,pleasant,272886,1757269688929,1757269416043,male,English,disjunctive,5e3e38e3c10d050a4e590bdc,68bdcda0248b8fa804c64d0e,68bdb7fd001027b66a95f0f4,2,45870,1,critical
1862,red,36,,Sound A,Graduated College,unpleasant,523837,1757269712360,1757269188523,female,english,conjunctive,59a734ce0c87a000017481ed,68bdccacf7dc161e98be9e27,68bdb7fd001027b66a95f0f4,Sound A,9116,1,comprehension
1862,red,36,,Sound B,Graduated College,unpleasant,523837,1757269712360,1757269188523,female,english,conjunctive,59a734ce0c87a000017481ed,68bdccacf7dc161e98be9e27,68bdb7fd001027b66a95f0f4,Sound B,2111,2,comprehension
1862,red,36,,Sound B,Graduated College,unpleasant,523837,1757269712360,1757269188523,female,english,conjunctive,59a734ce0c87a000017481ed,68bdccacf7dc161e98be9e27,68bdb7fd001027b66a95f0f4,Sound B,907,3,comprehension
1862,red,36,,Sound B,Graduated College,unpleasant,523837,1757269712360,1757269188523,female,english,conjunctive,59a734ce0c87a000017481ed,68bdccacf7dc161e98be9e27,68bdb7fd001027b66a95f0f4,Sound B,986,4,comprehension
1862,red,36,,only the islanders know,Graduated College,unpleasant,523837,1757269712360,1757269188523,female,english,conjunctive,59a734ce0c87a000017481ed,68bdccacf7dc161e98be9e27,68bdb7fd001027b66a95f0f4,90% for blue marbles and 10% for red marbles,11841,1,comprehension-2
1862,red,36,,FALSE,Graduated College,unpleasant,523837,1757269712360,1757269188523,female,english,conjunctive,59a734ce0c87a000017481ed,68bdccacf7dc161e98be9e27,68bdb7fd001027b66a95f0f4,FALSE,3679,2,comprehension-2
1862,red,36,,NA,Graduated College,unpleasant,523837,1757269712360,1757269188523,female,english,conjunctive,59a734ce0c87a000017481ed,68bdccacf7dc161e98be9e27,68bdb7fd001027b66a95f0f4,4,32526,1,critical
1863,blue,68,,Sound A,Graduated High-school,unpleasant,579047,1757269794450,1757269215403,female,English,conjunctive,5e4c511d056b9c0ad9b6fd24,68bdcca201fec47fc4c55ccd,68bdb7fd001027b66a95f0f4,Sound A,37524,1,comprehension
1863,blue,68,,Sound B,Graduated High-school,unpleasant,579047,1757269794450,1757269215403,female,English,conjunctive,5e4c511d056b9c0ad9b6fd24,68bdcca201fec47fc4c55ccd,68bdb7fd001027b66a95f0f4,Sound A,13507,2,comprehension
1863,blue,68,,Sound B,Graduated High-school,unpleasant,579047,1757269794450,1757269215403,female,English,conjunctive,5e4c511d056b9c0ad9b6fd24,68bdcca201fec47fc4c55ccd,68bdb7fd001027b66a95f0f4,Sound B,8115,3,comprehension
1863,blue,68,,Sound B,Graduated High-school,unpleasant,579047,1757269794450,1757269215403,female,English,conjunctive,5e4c511d056b9c0ad9b6fd24,68bdcca201fec47fc4c55ccd,68bdb7fd001027b66a95f0f4,Sound B,11341,4,comprehension
1863,blue,68,,only the islanders know,Graduated High-school,unpleasant,579047,1757269794450,1757269215403,female,English,conjunctive,5e4c511d056b9c0ad9b6fd24,68bdcca201fec47fc4c55ccd,68bdb7fd001027b66a95f0f4,only the islanders know,16327,1,comprehension-2
1863,blue,68,,FALSE,Graduated High-school,unpleasant,579047,1757269794450,1757269215403,female,English,conjunctive,5e4c511d056b9c0ad9b6fd24,68bdcca201fec47fc4c55ccd,68bdb7fd001027b66a95f0f4,TRUE,7980,2,comprehension-2
1863,blue,68,,NA,Graduated High-school,unpleasant,579047,1757269794450,1757269215403,female,English,conjunctive,5e4c511d056b9c0ad9b6fd24,68bdcca201fec47fc4c55ccd,68bdb7fd001027b66a95f0f4,4,118362,1,critical
1864,red,36,,Sound A,Graduated High-school,pleasant,426798,1757269761869,1757269335071,male,emglish,conjunctive,674530631263934b181d3224,68bdcd2e4859da0840dfc971,68bdb7fd001027b66a95f0f4,Sound A,14299,1,comprehension
1864,red,36,,Sound B,Graduated High-school,pleasant,426798,1757269761869,1757269335071,male,emglish,conjunctive,674530631263934b181d3224,68bdcd2e4859da0840dfc971,68bdb7fd001027b66a95f0f4,Sound B,1594,2,comprehension
1864,red,36,,Sound B,Graduated High-school,pleasant,426798,1757269761869,1757269335071,male,emglish,conjunctive,674530631263934b181d3224,68bdcd2e4859da0840dfc971,68bdb7fd001027b66a95f0f4,Sound B,1946,3,comprehension
1864,red,36,,Sound B,Graduated High-school,pleasant,426798,1757269761869,1757269335071,male,emglish,conjunctive,674530631263934b181d3224,68bdcd2e4859da0840dfc971,68bdb7fd001027b66a95f0f4,Sound B,1140,4,comprehension
1864,red,36,,only the islanders know,Graduated High-school,pleasant,426798,1757269761869,1757269335071,male,emglish,conjunctive,674530631263934b181d3224,68bdcd2e4859da0840dfc971,68bdb7fd001027b66a95f0f4,90% for blue marbles and 10% for red marbles,13916,1,comprehension-2
1864,red,36,,FALSE,Graduated High-school,pleasant,426798,1757269761869,1757269335071,male,emglish,conjunctive,674530631263934b181d3224,68bdcd2e4859da0840dfc971,68bdb7fd001027b66a95f0f4,FALSE,3945,2,comprehension-2
1864,red,36,,NA,Graduated High-school,pleasant,426798,1757269761869,1757269335071,male,emglish,conjunctive,674530631263934b181d3224,68bdcd2e4859da0840dfc971,68bdb7fd001027b66a95f0f4,3,98215,1,critical
1865,blue,35,This is an interesting study with memory test.,Sound A,Higher degree,neutral,574519,1757269763188,1757269188669,female,English,disjunctive,6736da52a7c6b58f513efb69,68bdccad33ac6356d856406e,68bdb7fd001027b66a95f0f4,Sound A,10440,1,comprehension
1865,blue,35,This is an interesting study with memory test.,Sound A,Higher degree,neutral,574519,1757269763188,1757269188669,female,English,disjunctive,6736da52a7c6b58f513efb69,68bdccad33ac6356d856406e,68bdb7fd001027b66a95f0f4,Sound A,7192,2,comprehension
1865,blue,35,This is an interesting study with memory test.,Sound A,Higher degree,neutral,574519,1757269763188,1757269188669,female,English,disjunctive,6736da52a7c6b58f513efb69,68bdccad33ac6356d856406e,68bdb7fd001027b66a95f0f4,Sound B,2296,3,comprehension
1865,blue,35,This is an interesting study with memory test.,Sound B,Higher degree,neutral,574519,1757269763188,1757269188669,female,English,disjunctive,6736da52a7c6b58f513efb69,68bdccad33ac6356d856406e,68bdb7fd001027b66a95f0f4,Sound B,2912,4,comprehension
1865,blue,35,This is an interesting study with memory test.,only the islanders know,Higher degree,neutral,574519,1757269763188,1757269188669,female,English,disjunctive,6736da52a7c6b58f513efb69,68bdccad33ac6356d856406e,68bdb7fd001027b66a95f0f4,90% for blue marbles and 10% for red marbles,22327,1,comprehension-2
1865,blue,35,This is an interesting study with memory test.,FALSE,Higher degree,neutral,574519,1757269763188,1757269188669,female,English,disjunctive,6736da52a7c6b58f513efb69,68bdccad33ac6356d856406e,68bdb7fd001027b66a95f0f4,FALSE,5264,2,comprehension-2
1865,blue,35,This is an interesting study with memory test.,NA,Higher degree,neutral,574519,1757269763188,1757269188669,female,English,disjunctive,6736da52a7c6b58f513efb69,68bdccad33ac6356d856406e,68bdb7fd001027b66a95f0f4,4,82299,1,critical
1866,blue,56,,Sound A,Higher degree,unpleasant,534709,1757269773475,1757269238766,male,English,disjunctive,63222311994c6e4c35bb2a55,68bdcceca5dcb7306ad4cbf0,68bdb7fd001027b66a95f0f4,Sound A,19265,1,comprehension
1866,blue,56,,Sound A,Higher degree,unpleasant,534709,1757269773475,1757269238766,male,English,disjunctive,63222311994c6e4c35bb2a55,68bdcceca5dcb7306ad4cbf0,68bdb7fd001027b66a95f0f4,Sound B,100579,2,comprehension
1866,blue,56,,Sound A,Higher degree,unpleasant,534709,1757269773475,1757269238766,male,English,disjunctive,63222311994c6e4c35bb2a55,68bdcceca5dcb7306ad4cbf0,68bdb7fd001027b66a95f0f4,Sound A,32612,3,comprehension
1866,blue,56,,Sound B,Higher degree,unpleasant,534709,1757269773475,1757269238766,male,English,disjunctive,63222311994c6e4c35bb2a55,68bdcceca5dcb7306ad4cbf0,68bdb7fd001027b66a95f0f4,Sound A,5982,4,comprehension
1866,blue,56,,only the islanders know,Higher degree,unpleasant,534709,1757269773475,1757269238766,male,English,disjunctive,63222311994c6e4c35bb2a55,68bdcceca5dcb7306ad4cbf0,68bdb7fd001027b66a95f0f4,only the islanders know,54988,1,comprehension-2
1866,blue,56,,FALSE,Higher degree,unpleasant,534709,1757269773475,1757269238766,male,English,disjunctive,63222311994c6e4c35bb2a55,68bdcceca5dcb7306ad4cbf0,68bdb7fd001027b66a95f0f4,FALSE,8616,2,comprehension-2
1866,blue,56,,NA,Higher degree,unpleasant,534709,1757269773475,1757269238766,male,English,disjunctive,63222311994c6e4c35bb2a55,68bdcceca5dcb7306ad4cbf0,68bdb7fd001027b66a95f0f4,6,111732,1,critical
1867,blue,44,,Sound A,Higher degree,neutral,251529,1757269807276,1757269555747,male,English,conjunctive,6716152e33a2af901d7e9196,68bdce2159d8f1a38e07d759,68bdb7fd001027b66a95f0f4,Sound A,17561,1,comprehension
1867,blue,44,,Sound B,Higher degree,neutral,251529,1757269807276,1757269555747,male,English,conjunctive,6716152e33a2af901d7e9196,68bdce2159d8f1a38e07d759,68bdb7fd001027b66a95f0f4,Sound B,1695,2,comprehension
1867,blue,44,,Sound B,Higher degree,neutral,251529,1757269807276,1757269555747,male,English,conjunctive,6716152e33a2af901d7e9196,68bdce2159d8f1a38e07d759,68bdb7fd001027b66a95f0f4,Sound B,1256,3,comprehension
1867,blue,44,,Sound B,Higher degree,neutral,251529,1757269807276,1757269555747,male,English,conjunctive,6716152e33a2af901d7e9196,68bdce2159d8f1a38e07d759,68bdb7fd001027b66a95f0f4,Sound B,872,4,comprehension
1867,blue,44,,only the islanders know,Higher degree,neutral,251529,1757269807276,1757269555747,male,English,conjunctive,6716152e33a2af901d7e9196,68bdce2159d8f1a38e07d759,68bdb7fd001027b66a95f0f4,only the islanders know,8768,1,comprehension-2
1867,blue,44,,FALSE,Higher degree,neutral,251529,1757269807276,1757269555747,male,English,conjunctive,6716152e33a2af901d7e9196,68bdce2159d8f1a38e07d759,68bdb7fd001027b66a95f0f4,FALSE,3992,2,comprehension-2
