submission_id,actual_cause,age,bias,comments,correctResponse,education,effect_valence,experiment_duration,experiment_end_time,experiment_start_time,gender,languages,mechanism,prolific_pid,prolific_session_id,prolific_study_id,response,responseTime,trialNr,trialType
1590,blue,27,blue,,Sound A,Graduated College,neutral,195630,1755774869198,1755774673568,female,English,conjunctive,668c1b6dc2285a0b0ce0add5,68a6fec259a796459dba78dd,68a6ef844167f3bc84ca21f3,Sound A,10786,1,comprehension
1590,blue,27,blue,,Sound B,Graduated College,neutral,195630,1755774869198,1755774673568,female,English,conjunctive,668c1b6dc2285a0b0ce0add5,68a6fec259a796459dba78dd,68a6ef844167f3bc84ca21f3,Sound B,3797,2,comprehension
1590,blue,27,blue,,Sound B,Graduated College,neutral,195630,1755774869198,1755774673568,female,English,conjunctive,668c1b6dc2285a0b0ce0add5,68a6fec259a796459dba78dd,68a6ef844167f3bc84ca21f3,Sound B,1670,3,comprehension
1590,blue,27,blue,,Sound B,Graduated College,neutral,195630,1755774869198,1755774673568,female,English,conjunctive,668c1b6dc2285a0b0ce0add5,68a6fec259a796459dba78dd,68a6ef844167f3bc84ca21f3,Sound B,2246,4,comprehension
1590,blue,27,blue,,blue,Graduated College,neutral,195630,1755774869198,1755774673568,female,English,conjunctive,668c1b6dc2285a0b0ce0add5,68a6fec259a796459dba78dd,68a6ef844167f3bc84ca21f3,Blue marble,5732,1,comprehension-2
1590,blue,27,blue,,Everyone,Graduated College,neutral,195630,1755774869198,1755774673568,female,English,conjunctive,668c1b6dc2285a0b0ce0add5,68a6fec259a796459dba78dd,68a6ef844167f3bc84ca21f3,Everyone,3166,1,comprehension-3
1590,blue,27,blue,,FALSE,Graduated College,neutral,195630,1755774869198,1755774673568,female,English,conjunctive,668c1b6dc2285a0b0ce0add5,68a6fec259a796459dba78dd,68a6ef844167f3bc84ca21f3,FALSE,3652,2,comprehension-3
1590,blue,27,blue,,NA,Graduated College,neutral,195630,1755774869198,1755774673568,female,English,conjunctive,668c1b6dc2285a0b0ce0add5,68a6fec259a796459dba78dd,68a6ef844167f3bc84ca21f3,4,37900,1,critical
1591,red,35,red,Thank you for your study.,Sound A,Graduated College,pleasant,288882,1755774999153,1755774710271,male,English,conjunctive,602c0fc2eff74b4748e9b41e,68a6feee7781f5e3697f0d29,68a6ef844167f3bc84ca21f3,Sound A,6859,1,comprehension
1591,red,35,red,Thank you for your study.,Sound B,Graduated College,pleasant,288882,1755774999153,1755774710271,male,English,conjunctive,602c0fc2eff74b4748e9b41e,68a6feee7781f5e3697f0d29,68a6ef844167f3bc84ca21f3,Sound B,1530,2,comprehension
1591,red,35,red,Thank you for your study.,Sound B,Graduated College,pleasant,288882,1755774999153,1755774710271,male,English,conjunctive,602c0fc2eff74b4748e9b41e,68a6feee7781f5e3697f0d29,68a6ef844167f3bc84ca21f3,Sound B,1028,3,comprehension
1591,red,35,red,Thank you for your study.,Sound B,Graduated College,pleasant,288882,1755774999153,1755774710271,male,English,conjunctive,602c0fc2eff74b4748e9b41e,68a6feee7781f5e3697f0d29,68a6ef844167f3bc84ca21f3,Sound B,1540,4,comprehension
1591,red,35,red,Thank you for your study.,red,Graduated College,pleasant,288882,1755774999153,1755774710271,male,English,conjunctive,602c0fc2eff74b4748e9b41e,68a6feee7781f5e3697f0d29,68a6ef844167f3bc84ca21f3,Red marble,8088,1,comprehension-2
1591,red,35,red,Thank you for your study.,Everyone,Graduated College,pleasant,288882,1755774999153,1755774710271,male,English,conjunctive,602c0fc2eff74b4748e9b41e,68a6feee7781f5e3697f0d29,68a6ef844167f3bc84ca21f3,Everyone,4025,1,comprehension-3
1591,red,35,red,Thank you for your study.,FALSE,Graduated College,pleasant,288882,1755774999153,1755774710271,male,English,conjunctive,602c0fc2eff74b4748e9b41e,68a6feee7781f5e3697f0d29,68a6ef844167f3bc84ca21f3,FALSE,2349,2,comprehension-3
1591,red,35,red,Thank you for your study.,NA,Graduated College,pleasant,288882,1755774999153,1755774710271,male,English,conjunctive,602c0fc2eff74b4748e9b41e,68a6feee7781f5e3697f0d29,68a6ef844167f3bc84ca21f3,6,57636,1,critical
1595,red,32,blue,,Sound A,Higher degree,pleasant,704961,1755775385114,1755774680153,male,English,conjunctive,5a65ea8363394a000155745d,68a6fece74c4a921b9a4ff83,68a6ef844167f3bc84ca21f3,Sound A,15631,1,comprehension
1595,red,32,blue,,Sound B,Higher degree,pleasant,704961,1755775385114,1755774680153,male,English,conjunctive,5a65ea8363394a000155745d,68a6fece74c4a921b9a4ff83,68a6ef844167f3bc84ca21f3,Sound B,3160,2,comprehension
1595,red,32,blue,,Sound B,Higher degree,pleasant,704961,1755775385114,1755774680153,male,English,conjunctive,5a65ea8363394a000155745d,68a6fece74c4a921b9a4ff83,68a6ef844167f3bc84ca21f3,Sound B,2214,3,comprehension
1595,red,32,blue,,Sound B,Higher degree,pleasant,704961,1755775385114,1755774680153,male,English,conjunctive,5a65ea8363394a000155745d,68a6fece74c4a921b9a4ff83,68a6ef844167f3bc84ca21f3,Sound B,6600,4,comprehension
1595,red,32,blue,,blue,Higher degree,pleasant,704961,1755775385114,1755774680153,male,English,conjunctive,5a65ea8363394a000155745d,68a6fece74c4a921b9a4ff83,68a6ef844167f3bc84ca21f3,Blue marble,6918,1,comprehension-2
1595,red,32,blue,,Everyone,Higher degree,pleasant,704961,1755775385114,1755774680153,male,English,conjunctive,5a65ea8363394a000155745d,68a6fece74c4a921b9a4ff83,68a6ef844167f3bc84ca21f3,Everyone,6879,1,comprehension-3
1595,red,32,blue,,FALSE,Higher degree,pleasant,704961,1755775385114,1755774680153,male,English,conjunctive,5a65ea8363394a000155745d,68a6fece74c4a921b9a4ff83,68a6ef844167f3bc84ca21f3,FALSE,3502,2,comprehension-3
1595,red,32,blue,,NA,Higher degree,pleasant,704961,1755775385114,1755774680153,male,English,conjunctive,5a65ea8363394a000155745d,68a6fece74c4a921b9a4ff83,68a6ef844167f3bc84ca21f3,3,122657,1,critical
1596,red,75,red,,Sound A,Graduated High-school,unpleasant,606885,1755775734797,1755775127912,female,English,disjunctive,5e54367e80cd0944205b27f9,68a7007622f614bbbbc167a5,68a6ef844167f3bc84ca21f3,Sound A,66808,1,comprehension
1596,red,75,red,,Sound A,Graduated High-school,unpleasant,606885,1755775734797,1755775127912,female,English,disjunctive,5e54367e80cd0944205b27f9,68a7007622f614bbbbc167a5,68a6ef844167f3bc84ca21f3,Sound A,18128,2,comprehension
1596,red,75,red,,Sound A,Graduated High-school,unpleasant,606885,1755775734797,1755775127912,female,English,disjunctive,5e54367e80cd0944205b27f9,68a7007622f614bbbbc167a5,68a6ef844167f3bc84ca21f3,Sound B,13471,3,comprehension
1596,red,75,red,,Sound B,Graduated High-school,unpleasant,606885,1755775734797,1755775127912,female,English,disjunctive,5e54367e80cd0944205b27f9,68a7007622f614bbbbc167a5,68a6ef844167f3bc84ca21f3,Sound B,4728,4,comprehension
1596,red,75,red,,red,Graduated High-school,unpleasant,606885,1755775734797,1755775127912,female,English,disjunctive,5e54367e80cd0944205b27f9,68a7007622f614bbbbc167a5,68a6ef844167f3bc84ca21f3,Red marble,61296,1,comprehension-2
1596,red,75,red,,Everyone,Graduated High-school,unpleasant,606885,1755775734797,1755775127912,female,English,disjunctive,5e54367e80cd0944205b27f9,68a7007622f614bbbbc167a5,68a6ef844167f3bc84ca21f3,Everyone,8824,1,comprehension-3
1596,red,75,red,,FALSE,Graduated High-school,unpleasant,606885,1755775734797,1755775127912,female,English,disjunctive,5e54367e80cd0944205b27f9,68a7007622f614bbbbc167a5,68a6ef844167f3bc84ca21f3,FALSE,5176,2,comprehension-3
1596,red,75,red,,NA,Graduated High-school,unpleasant,606885,1755775734797,1755775127912,female,English,disjunctive,5e54367e80cd0944205b27f9,68a7007622f614bbbbc167a5,68a6ef844167f3bc84ca21f3,6,200710,1,critical
1619,red,30,red,,Sound A,Graduated College,pleasant,282937,1756124615648,1756124332711,male,English,conjunctive,59ccd702faf42e00012b68f5,68ac54a4ab790ed6dee5f2d4,68ac4ae76781c84da1367d55,Sound A,7794,1,comprehension
1619,red,30,red,,Sound B,Graduated College,pleasant,282937,1756124615648,1756124332711,male,English,conjunctive,59ccd702faf42e00012b68f5,68ac54a4ab790ed6dee5f2d4,68ac4ae76781c84da1367d55,Sound B,1771,2,comprehension
1619,red,30,red,,Sound B,Graduated College,pleasant,282937,1756124615648,1756124332711,male,English,conjunctive,59ccd702faf42e00012b68f5,68ac54a4ab790ed6dee5f2d4,68ac4ae76781c84da1367d55,Sound B,1086,3,comprehension
1619,red,30,red,,Sound B,Graduated College,pleasant,282937,1756124615648,1756124332711,male,English,conjunctive,59ccd702faf42e00012b68f5,68ac54a4ab790ed6dee5f2d4,68ac4ae76781c84da1367d55,Sound B,808,4,comprehension
1619,red,30,red,,Red marble,Graduated College,pleasant,282937,1756124615648,1756124332711,male,English,conjunctive,59ccd702faf42e00012b68f5,68ac54a4ab790ed6dee5f2d4,68ac4ae76781c84da1367d55,Red marble,6733,1,comprehension-2
1619,red,30,red,,Everyone,Graduated College,pleasant,282937,1756124615648,1756124332711,male,English,conjunctive,59ccd702faf42e00012b68f5,68ac54a4ab790ed6dee5f2d4,68ac4ae76781c84da1367d55,Everyone,2561,1,comprehension-3
1619,red,30,red,,FALSE,Graduated College,pleasant,282937,1756124615648,1756124332711,male,English,conjunctive,59ccd702faf42e00012b68f5,68ac54a4ab790ed6dee5f2d4,68ac4ae76781c84da1367d55,FALSE,2881,2,comprehension-3
1619,red,30,red,,NA,Graduated College,pleasant,282937,1756124615648,1756124332711,male,English,conjunctive,59ccd702faf42e00012b68f5,68ac54a4ab790ed6dee5f2d4,68ac4ae76781c84da1367d55,6,32912,1,critical
1608,blue,30,red,,Sound A,Graduated College,unpleasant,133295,1756124516620,1756124383325,male,english,conjunctive,57bfc1beef05670001ee84c2,68ac54da57fa8cfcceca8e1e,68ac4ae76781c84da1367d55,Sound A,9160,1,comprehension
1608,blue,30,red,,Sound B,Graduated College,unpleasant,133295,1756124516620,1756124383325,male,english,conjunctive,57bfc1beef05670001ee84c2,68ac54da57fa8cfcceca8e1e,68ac4ae76781c84da1367d55,Sound B,9923,2,comprehension
1608,blue,30,red,,Sound B,Graduated College,unpleasant,133295,1756124516620,1756124383325,male,english,conjunctive,57bfc1beef05670001ee84c2,68ac54da57fa8cfcceca8e1e,68ac4ae76781c84da1367d55,Sound B,1500,3,comprehension
1608,blue,30,red,,Sound B,Graduated College,unpleasant,133295,1756124516620,1756124383325,male,english,conjunctive,57bfc1beef05670001ee84c2,68ac54da57fa8cfcceca8e1e,68ac4ae76781c84da1367d55,Sound B,1220,4,comprehension
1608,blue,30,red,,Red marble,Graduated College,unpleasant,133295,1756124516620,1756124383325,male,english,conjunctive,57bfc1beef05670001ee84c2,68ac54da57fa8cfcceca8e1e,68ac4ae76781c84da1367d55,Red marble,7836,1,comprehension-2
1608,blue,30,red,,Everyone,Graduated College,unpleasant,133295,1756124516620,1756124383325,male,english,conjunctive,57bfc1beef05670001ee84c2,68ac54da57fa8cfcceca8e1e,68ac4ae76781c84da1367d55,Everyone,4220,1,comprehension-3
1608,blue,30,red,,FALSE,Graduated College,unpleasant,133295,1756124516620,1756124383325,male,english,conjunctive,57bfc1beef05670001ee84c2,68ac54da57fa8cfcceca8e1e,68ac4ae76781c84da1367d55,FALSE,3100,2,comprehension-3
1608,blue,30,red,,NA,Graduated College,unpleasant,133295,1756124516620,1756124383325,male,english,conjunctive,57bfc1beef05670001ee84c2,68ac54da57fa8cfcceca8e1e,68ac4ae76781c84da1367d55,7,29972,1,critical
1613,blue,52,blue,,Sound A,Graduated College,pleasant,160983,1756124576841,1756124415858,female,English,conjunctive,65cb586a1166caf7eb546dda,68ac54f1d7a249c8d9e7902d,68ac4ae76781c84da1367d55,Sound A,12902,1,comprehension
1613,blue,52,blue,,Sound B,Graduated College,pleasant,160983,1756124576841,1756124415858,female,English,conjunctive,65cb586a1166caf7eb546dda,68ac54f1d7a249c8d9e7902d,68ac4ae76781c84da1367d55,Sound B,1789,2,comprehension
1613,blue,52,blue,,Sound B,Graduated College,pleasant,160983,1756124576841,1756124415858,female,English,conjunctive,65cb586a1166caf7eb546dda,68ac54f1d7a249c8d9e7902d,68ac4ae76781c84da1367d55,Sound B,1180,3,comprehension
1613,blue,52,blue,,Sound B,Graduated College,pleasant,160983,1756124576841,1756124415858,female,English,conjunctive,65cb586a1166caf7eb546dda,68ac54f1d7a249c8d9e7902d,68ac4ae76781c84da1367d55,Sound B,916,4,comprehension
1613,blue,52,blue,,Blue marble,Graduated College,pleasant,160983,1756124576841,1756124415858,female,English,conjunctive,65cb586a1166caf7eb546dda,68ac54f1d7a249c8d9e7902d,68ac4ae76781c84da1367d55,Blue marble,8902,1,comprehension-2
1613,blue,52,blue,,Everyone,Graduated College,pleasant,160983,1756124576841,1756124415858,female,English,conjunctive,65cb586a1166caf7eb546dda,68ac54f1d7a249c8d9e7902d,68ac4ae76781c84da1367d55,Everyone,4461,1,comprehension-3
1613,blue,52,blue,,FALSE,Graduated College,pleasant,160983,1756124576841,1756124415858,female,English,conjunctive,65cb586a1166caf7eb546dda,68ac54f1d7a249c8d9e7902d,68ac4ae76781c84da1367d55,FALSE,3353,2,comprehension-3
1613,blue,52,blue,,NA,Graduated College,pleasant,160983,1756124576841,1756124415858,female,English,conjunctive,65cb586a1166caf7eb546dda,68ac54f1d7a249c8d9e7902d,68ac4ae76781c84da1367d55,4,22548,1,critical
1615,blue,42,blue,,Sound A,Graduated College,unpleasant,313077,1756124586897,1756124273820,female,English,disjunctive,59a9c0291b7a550001d6392e,68ac546d9a5936870d8de385,68ac4ae76781c84da1367d55,Sound A,5676,1,comprehension
1615,blue,42,blue,,Sound A,Graduated College,unpleasant,313077,1756124586897,1756124273820,female,English,disjunctive,59a9c0291b7a550001d6392e,68ac546d9a5936870d8de385,68ac4ae76781c84da1367d55,Sound A,14709,2,comprehension
1615,blue,42,blue,,Sound A,Graduated College,unpleasant,313077,1756124586897,1756124273820,female,English,disjunctive,59a9c0291b7a550001d6392e,68ac546d9a5936870d8de385,68ac4ae76781c84da1367d55,Sound A,24751,3,comprehension
1615,blue,42,blue,,Sound B,Graduated College,unpleasant,313077,1756124586897,1756124273820,female,English,disjunctive,59a9c0291b7a550001d6392e,68ac546d9a5936870d8de385,68ac4ae76781c84da1367d55,Sound B,6771,4,comprehension
1615,blue,42,blue,,Blue marble,Graduated College,unpleasant,313077,1756124586897,1756124273820,female,English,disjunctive,59a9c0291b7a550001d6392e,68ac546d9a5936870d8de385,68ac4ae76781c84da1367d55,Blue marble,11222,1,comprehension-2
1615,blue,42,blue,,Everyone,Graduated College,unpleasant,313077,1756124586897,1756124273820,female,English,disjunctive,59a9c0291b7a550001d6392e,68ac546d9a5936870d8de385,68ac4ae76781c84da1367d55,Everyone,12387,1,comprehension-3
1615,blue,42,blue,,FALSE,Graduated College,unpleasant,313077,1756124586897,1756124273820,female,English,disjunctive,59a9c0291b7a550001d6392e,68ac546d9a5936870d8de385,68ac4ae76781c84da1367d55,FALSE,3848,2,comprehension-3
1615,blue,42,blue,,NA,Graduated College,unpleasant,313077,1756124586897,1756124273820,female,English,disjunctive,59a9c0291b7a550001d6392e,68ac546d9a5936870d8de385,68ac4ae76781c84da1367d55,4,79844,1,critical
1627,red,50,red,,Sound A,Graduated College,neutral,123427,1756124646768,1756124523341,female,english,conjunctive,5d542c3a5af5900019bc80c4,68ac5564673ff501f299691c,68ac4ae76781c84da1367d55,Sound A,5467,1,comprehension
1627,red,50,red,,Sound B,Graduated College,neutral,123427,1756124646768,1756124523341,female,english,conjunctive,5d542c3a5af5900019bc80c4,68ac5564673ff501f299691c,68ac4ae76781c84da1367d55,Sound B,1782,2,comprehension
1627,red,50,red,,Sound B,Graduated College,neutral,123427,1756124646768,1756124523341,female,english,conjunctive,5d542c3a5af5900019bc80c4,68ac5564673ff501f299691c,68ac4ae76781c84da1367d55,Sound B,2301,3,comprehension
1627,red,50,red,,Sound B,Graduated College,neutral,123427,1756124646768,1756124523341,female,english,conjunctive,5d542c3a5af5900019bc80c4,68ac5564673ff501f299691c,68ac4ae76781c84da1367d55,Sound B,1399,4,comprehension
1627,red,50,red,,Red marble,Graduated College,neutral,123427,1756124646768,1756124523341,female,english,conjunctive,5d542c3a5af5900019bc80c4,68ac5564673ff501f299691c,68ac4ae76781c84da1367d55,Red marble,7384,1,comprehension-2
1627,red,50,red,,Everyone,Graduated College,neutral,123427,1756124646768,1756124523341,female,english,conjunctive,5d542c3a5af5900019bc80c4,68ac5564673ff501f299691c,68ac4ae76781c84da1367d55,Everyone,2284,1,comprehension-3
1627,red,50,red,,FALSE,Graduated College,neutral,123427,1756124646768,1756124523341,female,english,conjunctive,5d542c3a5af5900019bc80c4,68ac5564673ff501f299691c,68ac4ae76781c84da1367d55,FALSE,2066,2,comprehension-3
1627,red,50,red,,NA,Graduated College,neutral,123427,1756124646768,1756124523341,female,english,conjunctive,5d542c3a5af5900019bc80c4,68ac5564673ff501f299691c,68ac4ae76781c84da1367d55,4,40118,1,critical
1632,red,39,blue,,Sound A,Higher degree,unpleasant,104807,1756124669203,1756124564396,female,English,conjunctive,66e84a9aeb1250e4e671ae2c,68ac5591572afd8c94f91849,68ac4ae76781c84da1367d55,Sound A,5604,1,comprehension
1632,red,39,blue,,Sound B,Higher degree,unpleasant,104807,1756124669203,1756124564396,female,English,conjunctive,66e84a9aeb1250e4e671ae2c,68ac5591572afd8c94f91849,68ac4ae76781c84da1367d55,Sound B,1346,2,comprehension
1632,red,39,blue,,Sound B,Higher degree,unpleasant,104807,1756124669203,1756124564396,female,English,conjunctive,66e84a9aeb1250e4e671ae2c,68ac5591572afd8c94f91849,68ac4ae76781c84da1367d55,Sound B,1095,3,comprehension
1632,red,39,blue,,Sound B,Higher degree,unpleasant,104807,1756124669203,1756124564396,female,English,conjunctive,66e84a9aeb1250e4e671ae2c,68ac5591572afd8c94f91849,68ac4ae76781c84da1367d55,Sound B,1140,4,comprehension
1632,red,39,blue,,Blue marble,Higher degree,unpleasant,104807,1756124669203,1756124564396,female,English,conjunctive,66e84a9aeb1250e4e671ae2c,68ac5591572afd8c94f91849,68ac4ae76781c84da1367d55,Blue marble,4020,1,comprehension-2
1632,red,39,blue,,Everyone,Higher degree,unpleasant,104807,1756124669203,1756124564396,female,English,conjunctive,66e84a9aeb1250e4e671ae2c,68ac5591572afd8c94f91849,68ac4ae76781c84da1367d55,Everyone,1732,1,comprehension-3
1632,red,39,blue,,FALSE,Higher degree,unpleasant,104807,1756124669203,1756124564396,female,English,conjunctive,66e84a9aeb1250e4e671ae2c,68ac5591572afd8c94f91849,68ac4ae76781c84da1367d55,FALSE,1915,2,comprehension-3
1632,red,39,blue,,NA,Higher degree,unpleasant,104807,1756124669203,1756124564396,female,English,conjunctive,66e84a9aeb1250e4e671ae2c,68ac5591572afd8c94f91849,68ac4ae76781c84da1367d55,1,13343,1,critical
1657,red,30,blue,,Sound A,Higher degree,neutral,226611,1756124768575,1756124541964,female,English,conjunctive,6070a06a1d49fbecb9ee79d2,68ac557a677366841375898f,68ac4ae76781c84da1367d55,Sound A,9710,1,comprehension
1657,red,30,blue,,Sound B,Higher degree,neutral,226611,1756124768575,1756124541964,female,English,conjunctive,6070a06a1d49fbecb9ee79d2,68ac557a677366841375898f,68ac4ae76781c84da1367d55,Sound B,1474,2,comprehension
1657,red,30,blue,,Sound B,Higher degree,neutral,226611,1756124768575,1756124541964,female,English,conjunctive,6070a06a1d49fbecb9ee79d2,68ac557a677366841375898f,68ac4ae76781c84da1367d55,Sound B,1459,3,comprehension
1657,red,30,blue,,Sound B,Higher degree,neutral,226611,1756124768575,1756124541964,female,English,conjunctive,6070a06a1d49fbecb9ee79d2,68ac557a677366841375898f,68ac4ae76781c84da1367d55,Sound B,1215,4,comprehension
1657,red,30,blue,,Blue marble,Higher degree,neutral,226611,1756124768575,1756124541964,female,English,conjunctive,6070a06a1d49fbecb9ee79d2,68ac557a677366841375898f,68ac4ae76781c84da1367d55,Blue marble,17650,1,comprehension-2
1657,red,30,blue,,Everyone,Higher degree,neutral,226611,1756124768575,1756124541964,female,English,conjunctive,6070a06a1d49fbecb9ee79d2,68ac557a677366841375898f,68ac4ae76781c84da1367d55,Everyone,3115,1,comprehension-3
1657,red,30,blue,,FALSE,Higher degree,neutral,226611,1756124768575,1756124541964,female,English,conjunctive,6070a06a1d49fbecb9ee79d2,68ac557a677366841375898f,68ac4ae76781c84da1367d55,FALSE,3334,2,comprehension-3
1657,red,30,blue,,NA,Higher degree,neutral,226611,1756124768575,1756124541964,female,English,conjunctive,6070a06a1d49fbecb9ee79d2,68ac557a677366841375898f,68ac4ae76781c84da1367d55,1,72795,1,critical
1663,blue,42,red,,Sound A,Graduated College,pleasant,342939,1756125019936,1756124676997,female,English,conjunctive,6504c6655c2ae520567f52ff,68ac5531fbb9b727c4635aa3,68ac4ae76781c84da1367d55,Sound B,18616,1,comprehension
1663,blue,42,red,,Sound B,Graduated College,pleasant,342939,1756125019936,1756124676997,female,English,conjunctive,6504c6655c2ae520567f52ff,68ac5531fbb9b727c4635aa3,68ac4ae76781c84da1367d55,Sound B,19212,2,comprehension
1663,blue,42,red,,Sound B,Graduated College,pleasant,342939,1756125019936,1756124676997,female,English,conjunctive,6504c6655c2ae520567f52ff,68ac5531fbb9b727c4635aa3,68ac4ae76781c84da1367d55,Sound B,7293,3,comprehension
1663,blue,42,red,,Sound B,Graduated College,pleasant,342939,1756125019936,1756124676997,female,English,conjunctive,6504c6655c2ae520567f52ff,68ac5531fbb9b727c4635aa3,68ac4ae76781c84da1367d55,Sound B,8919,4,comprehension
1663,blue,42,red,,Red marble,Graduated College,pleasant,342939,1756125019936,1756124676997,female,English,conjunctive,6504c6655c2ae520567f52ff,68ac5531fbb9b727c4635aa3,68ac4ae76781c84da1367d55,Red marble,13007,1,comprehension-2
1663,blue,42,red,,Everyone,Graduated College,pleasant,342939,1756125019936,1756124676997,female,English,conjunctive,6504c6655c2ae520567f52ff,68ac5531fbb9b727c4635aa3,68ac4ae76781c84da1367d55,Everyone,7506,1,comprehension-3
1663,blue,42,red,,FALSE,Graduated College,pleasant,342939,1756125019936,1756124676997,female,English,conjunctive,6504c6655c2ae520567f52ff,68ac5531fbb9b727c4635aa3,68ac4ae76781c84da1367d55,FALSE,6033,2,comprehension-3
1663,blue,42,red,,NA,Graduated College,pleasant,342939,1756125019936,1756124676997,female,English,conjunctive,6504c6655c2ae520567f52ff,68ac5531fbb9b727c4635aa3,68ac4ae76781c84da1367d55,1,56436,1,critical
1672,blue,50,red,,Sound A,Graduated College,unpleasant,305199,1756124840230,1756124535031,male,english,conjunctive,641384b3dffcf39ec42d3c23,68ac557340a58dac0bce0ac7,68ac4ae76781c84da1367d55,Sound A,10236,1,comprehension
1672,blue,50,red,,Sound B,Graduated College,unpleasant,305199,1756124840230,1756124535031,male,english,conjunctive,641384b3dffcf39ec42d3c23,68ac557340a58dac0bce0ac7,68ac4ae76781c84da1367d55,Sound B,11498,2,comprehension
1672,blue,50,red,,Sound B,Graduated College,unpleasant,305199,1756124840230,1756124535031,male,english,conjunctive,641384b3dffcf39ec42d3c23,68ac557340a58dac0bce0ac7,68ac4ae76781c84da1367d55,Sound B,2130,3,comprehension
1672,blue,50,red,,Sound B,Graduated College,unpleasant,305199,1756124840230,1756124535031,male,english,conjunctive,641384b3dffcf39ec42d3c23,68ac557340a58dac0bce0ac7,68ac4ae76781c84da1367d55,Sound B,3348,4,comprehension
1672,blue,50,red,,Red marble,Graduated College,unpleasant,305199,1756124840230,1756124535031,male,english,conjunctive,641384b3dffcf39ec42d3c23,68ac557340a58dac0bce0ac7,68ac4ae76781c84da1367d55,Red marble,14162,1,comprehension-2
1672,blue,50,red,,Everyone,Graduated College,unpleasant,305199,1756124840230,1756124535031,male,english,conjunctive,641384b3dffcf39ec42d3c23,68ac557340a58dac0bce0ac7,68ac4ae76781c84da1367d55,Everyone,7678,1,comprehension-3
1672,blue,50,red,,FALSE,Graduated College,unpleasant,305199,1756124840230,1756124535031,male,english,conjunctive,641384b3dffcf39ec42d3c23,68ac557340a58dac0bce0ac7,68ac4ae76781c84da1367d55,FALSE,5036,2,comprehension-3
1672,blue,50,red,,NA,Graduated College,unpleasant,305199,1756124840230,1756124535031,male,english,conjunctive,641384b3dffcf39ec42d3c23,68ac557340a58dac0bce0ac7,68ac4ae76781c84da1367d55,7,70863,1,critical
1675,blue,38,red,,Sound A,Graduated College,unpleasant,191072,1756124844638,1756124653566,female,English,conjunctive,5dee44454d7bea4e3f4b44a6,68ac55e61ffbacce3acfc90f,68ac4ae76781c84da1367d55,Sound A,3931,1,comprehension
1675,blue,38,red,,Sound B,Graduated College,unpleasant,191072,1756124844638,1756124653566,female,English,conjunctive,5dee44454d7bea4e3f4b44a6,68ac55e61ffbacce3acfc90f,68ac4ae76781c84da1367d55,Sound B,1725,2,comprehension
1675,blue,38,red,,Sound B,Graduated College,unpleasant,191072,1756124844638,1756124653566,female,English,conjunctive,5dee44454d7bea4e3f4b44a6,68ac55e61ffbacce3acfc90f,68ac4ae76781c84da1367d55,Sound B,1247,3,comprehension
1675,blue,38,red,,Sound B,Graduated College,unpleasant,191072,1756124844638,1756124653566,female,English,conjunctive,5dee44454d7bea4e3f4b44a6,68ac55e61ffbacce3acfc90f,68ac4ae76781c84da1367d55,Sound B,1248,4,comprehension
1675,blue,38,red,,Red marble,Graduated College,unpleasant,191072,1756124844638,1756124653566,female,English,conjunctive,5dee44454d7bea4e3f4b44a6,68ac55e61ffbacce3acfc90f,68ac4ae76781c84da1367d55,Red marble,7475,1,comprehension-2
1675,blue,38,red,,Everyone,Graduated College,unpleasant,191072,1756124844638,1756124653566,female,English,conjunctive,5dee44454d7bea4e3f4b44a6,68ac55e61ffbacce3acfc90f,68ac4ae76781c84da1367d55,Everyone,7888,1,comprehension-3
1675,blue,38,red,,FALSE,Graduated College,unpleasant,191072,1756124844638,1756124653566,female,English,conjunctive,5dee44454d7bea4e3f4b44a6,68ac55e61ffbacce3acfc90f,68ac4ae76781c84da1367d55,FALSE,3660,2,comprehension-3
1675,blue,38,red,,NA,Graduated College,unpleasant,191072,1756124844638,1756124653566,female,English,conjunctive,5dee44454d7bea4e3f4b44a6,68ac55e61ffbacce3acfc90f,68ac4ae76781c84da1367d55,1,21443,1,critical
1639,blue,49,red,,Sound A,Graduated College,unpleasant,158342,1756124694285,1756124535943,male,English,conjunctive,596e1edd39e9d00001b7bb98,68ac557222e98cd2c826d09b,68ac4ae76781c84da1367d55,Sound A,9208,1,comprehension
1639,blue,49,red,,Sound B,Graduated College,unpleasant,158342,1756124694285,1756124535943,male,English,conjunctive,596e1edd39e9d00001b7bb98,68ac557222e98cd2c826d09b,68ac4ae76781c84da1367d55,Sound B,1637,2,comprehension
1639,blue,49,red,,Sound B,Graduated College,unpleasant,158342,1756124694285,1756124535943,male,English,conjunctive,596e1edd39e9d00001b7bb98,68ac557222e98cd2c826d09b,68ac4ae76781c84da1367d55,Sound B,1102,3,comprehension
1639,blue,49,red,,Sound B,Graduated College,unpleasant,158342,1756124694285,1756124535943,male,English,conjunctive,596e1edd39e9d00001b7bb98,68ac557222e98cd2c826d09b,68ac4ae76781c84da1367d55,Sound B,968,4,comprehension
1639,blue,49,red,,Red marble,Graduated College,unpleasant,158342,1756124694285,1756124535943,male,English,conjunctive,596e1edd39e9d00001b7bb98,68ac557222e98cd2c826d09b,68ac4ae76781c84da1367d55,Red marble,6720,1,comprehension-2
1639,blue,49,red,,Everyone,Graduated College,unpleasant,158342,1756124694285,1756124535943,male,English,conjunctive,596e1edd39e9d00001b7bb98,68ac557222e98cd2c826d09b,68ac4ae76781c84da1367d55,Everyone,4270,1,comprehension-3
1639,blue,49,red,,FALSE,Graduated College,unpleasant,158342,1756124694285,1756124535943,male,English,conjunctive,596e1edd39e9d00001b7bb98,68ac557222e98cd2c826d09b,68ac4ae76781c84da1367d55,FALSE,2736,2,comprehension-3
1639,blue,49,red,,NA,Graduated College,unpleasant,158342,1756124694285,1756124535943,male,English,conjunctive,596e1edd39e9d00001b7bb98,68ac557222e98cd2c826d09b,68ac4ae76781c84da1367d55,7,31637,1,critical
1648,blue,54,red,,Sound A,Graduated College,unpleasant,240618,1756124731681,1756124491063,female,English,conjunctive,67c585f8e60aec06bb2e7863,68ac5539007a316de3142093,68ac4ae76781c84da1367d55,Sound A,17272,1,comprehension
1648,blue,54,red,,Sound B,Graduated College,unpleasant,240618,1756124731681,1756124491063,female,English,conjunctive,67c585f8e60aec06bb2e7863,68ac5539007a316de3142093,68ac4ae76781c84da1367d55,Sound B,2830,2,comprehension
1648,blue,54,red,,Sound B,Graduated College,unpleasant,240618,1756124731681,1756124491063,female,English,conjunctive,67c585f8e60aec06bb2e7863,68ac5539007a316de3142093,68ac4ae76781c84da1367d55,Sound B,1724,3,comprehension
1648,blue,54,red,,Sound B,Graduated College,unpleasant,240618,1756124731681,1756124491063,female,English,conjunctive,67c585f8e60aec06bb2e7863,68ac5539007a316de3142093,68ac4ae76781c84da1367d55,Sound B,1434,4,comprehension
1648,blue,54,red,,Red marble,Graduated College,unpleasant,240618,1756124731681,1756124491063,female,English,conjunctive,67c585f8e60aec06bb2e7863,68ac5539007a316de3142093,68ac4ae76781c84da1367d55,Red marble,14336,1,comprehension-2
1648,blue,54,red,,Everyone,Graduated College,unpleasant,240618,1756124731681,1756124491063,female,English,conjunctive,67c585f8e60aec06bb2e7863,68ac5539007a316de3142093,68ac4ae76781c84da1367d55,Everyone,5370,1,comprehension-3
1648,blue,54,red,,FALSE,Graduated College,unpleasant,240618,1756124731681,1756124491063,female,English,conjunctive,67c585f8e60aec06bb2e7863,68ac5539007a316de3142093,68ac4ae76781c84da1367d55,FALSE,4388,2,comprehension-3
1648,blue,54,red,,NA,Graduated College,unpleasant,240618,1756124731681,1756124491063,female,English,conjunctive,67c585f8e60aec06bb2e7863,68ac5539007a316de3142093,68ac4ae76781c84da1367d55,2,45508,1,critical
1689,blue,32,red,,Sound A,Graduated College,pleasant,106238,1756124895974,1756124789736,female,English,disjunctive,5cfebb94eafc4d001a62cbc9,68ac566c99f58cd94ba01d68,68ac4ae76781c84da1367d55,Sound A,5105,1,comprehension
1689,blue,32,red,,Sound A,Graduated College,pleasant,106238,1756124895974,1756124789736,female,English,disjunctive,5cfebb94eafc4d001a62cbc9,68ac566c99f58cd94ba01d68,68ac4ae76781c84da1367d55,Sound A,5209,2,comprehension
1689,blue,32,red,,Sound A,Graduated College,pleasant,106238,1756124895974,1756124789736,female,English,disjunctive,5cfebb94eafc4d001a62cbc9,68ac566c99f58cd94ba01d68,68ac4ae76781c84da1367d55,Sound A,1633,3,comprehension
1689,blue,32,red,,Sound B,Graduated College,pleasant,106238,1756124895974,1756124789736,female,English,disjunctive,5cfebb94eafc4d001a62cbc9,68ac566c99f58cd94ba01d68,68ac4ae76781c84da1367d55,Sound B,1642,4,comprehension
1689,blue,32,red,,Red marble,Graduated College,pleasant,106238,1756124895974,1756124789736,female,English,disjunctive,5cfebb94eafc4d001a62cbc9,68ac566c99f58cd94ba01d68,68ac4ae76781c84da1367d55,Red marble,4102,1,comprehension-2
1689,blue,32,red,,Everyone,Graduated College,pleasant,106238,1756124895974,1756124789736,female,English,disjunctive,5cfebb94eafc4d001a62cbc9,68ac566c99f58cd94ba01d68,68ac4ae76781c84da1367d55,Everyone,2091,1,comprehension-3
1689,blue,32,red,,FALSE,Graduated College,pleasant,106238,1756124895974,1756124789736,female,English,disjunctive,5cfebb94eafc4d001a62cbc9,68ac566c99f58cd94ba01d68,68ac4ae76781c84da1367d55,FALSE,1724,2,comprehension-3
1689,blue,32,red,,NA,Graduated College,pleasant,106238,1756124895974,1756124789736,female,English,disjunctive,5cfebb94eafc4d001a62cbc9,68ac566c99f58cd94ba01d68,68ac4ae76781c84da1367d55,1,18341,1,critical
1692,red,68,blue,N/A,Sound A,Higher degree,pleasant,277688,1756124918924,1756124641237,female,English,conjunctive,57dc590ddcda780001a0e157,68ac55d673e396b370f93b47,68ac4ae76781c84da1367d55,Sound A,20340,1,comprehension
1692,red,68,blue,N/A,Sound B,Higher degree,pleasant,277688,1756124918924,1756124641237,female,English,conjunctive,57dc590ddcda780001a0e157,68ac55d673e396b370f93b47,68ac4ae76781c84da1367d55,Sound B,11552,2,comprehension
1692,red,68,blue,N/A,Sound B,Higher degree,pleasant,277688,1756124918924,1756124641237,female,English,conjunctive,57dc590ddcda780001a0e157,68ac55d673e396b370f93b47,68ac4ae76781c84da1367d55,Sound B,6408,3,comprehension
1692,red,68,blue,N/A,Sound B,Higher degree,pleasant,277688,1756124918924,1756124641237,female,English,conjunctive,57dc590ddcda780001a0e157,68ac55d673e396b370f93b47,68ac4ae76781c84da1367d55,Sound B,5408,4,comprehension
1692,red,68,blue,N/A,Blue marble,Higher degree,pleasant,277688,1756124918924,1756124641237,female,English,conjunctive,57dc590ddcda780001a0e157,68ac55d673e396b370f93b47,68ac4ae76781c84da1367d55,Blue marble,9236,1,comprehension-2
1692,red,68,blue,N/A,Everyone,Higher degree,pleasant,277688,1756124918924,1756124641237,female,English,conjunctive,57dc590ddcda780001a0e157,68ac55d673e396b370f93b47,68ac4ae76781c84da1367d55,Everyone,5775,1,comprehension-3
1692,red,68,blue,N/A,FALSE,Higher degree,pleasant,277688,1756124918924,1756124641237,female,English,conjunctive,57dc590ddcda780001a0e157,68ac55d673e396b370f93b47,68ac4ae76781c84da1367d55,FALSE,5880,2,comprehension-3
1692,red,68,blue,N/A,NA,Higher degree,pleasant,277688,1756124918924,1756124641237,female,English,conjunctive,57dc590ddcda780001a0e157,68ac55d673e396b370f93b47,68ac4ae76781c84da1367d55,6,47724,1,critical
1698,red,58,red,,Sound A,Higher degree,pleasant,297844,1756124935894,1756124638050,female,English,disjunctive,6276d97e209059496d37bf74,68ac55d78a7c39b2aa4a80a6,68ac4ae76781c84da1367d55,Sound A,26881,1,comprehension
1698,red,58,red,,Sound A,Higher degree,pleasant,297844,1756124935894,1756124638050,female,English,disjunctive,6276d97e209059496d37bf74,68ac55d78a7c39b2aa4a80a6,68ac4ae76781c84da1367d55,Sound A,3759,2,comprehension
1698,red,58,red,,Sound A,Higher degree,pleasant,297844,1756124935894,1756124638050,female,English,disjunctive,6276d97e209059496d37bf74,68ac55d78a7c39b2aa4a80a6,68ac4ae76781c84da1367d55,Sound A,3400,3,comprehension
1698,red,58,red,,Sound B,Higher degree,pleasant,297844,1756124935894,1756124638050,female,English,disjunctive,6276d97e209059496d37bf74,68ac55d78a7c39b2aa4a80a6,68ac4ae76781c84da1367d55,Sound B,2616,4,comprehension
1698,red,58,red,,Red marble,Higher degree,pleasant,297844,1756124935894,1756124638050,female,English,disjunctive,6276d97e209059496d37bf74,68ac55d78a7c39b2aa4a80a6,68ac4ae76781c84da1367d55,Red marble,9056,1,comprehension-2
1698,red,58,red,,Everyone,Higher degree,pleasant,297844,1756124935894,1756124638050,female,English,disjunctive,6276d97e209059496d37bf74,68ac55d78a7c39b2aa4a80a6,68ac4ae76781c84da1367d55,Everyone,5000,1,comprehension-3
1698,red,58,red,,FALSE,Higher degree,pleasant,297844,1756124935894,1756124638050,female,English,disjunctive,6276d97e209059496d37bf74,68ac55d78a7c39b2aa4a80a6,68ac4ae76781c84da1367d55,FALSE,3104,2,comprehension-3
1698,red,58,red,,NA,Higher degree,pleasant,297844,1756124935894,1756124638050,female,English,disjunctive,6276d97e209059496d37bf74,68ac55d78a7c39b2aa4a80a6,68ac4ae76781c84da1367d55,7,47224,1,critical
1706,red,48,blue,,Sound A,Graduated College,pleasant,400698,1756124961284,1756124560586,male,English,conjunctive,597c4133cae3340001135a72,68ac558a34548bbcc96d8f59,68ac4ae76781c84da1367d55,Sound A,35888,1,comprehension
1706,red,48,blue,,Sound B,Graduated College,pleasant,400698,1756124961284,1756124560586,male,English,conjunctive,597c4133cae3340001135a72,68ac558a34548bbcc96d8f59,68ac4ae76781c84da1367d55,Sound B,14543,2,comprehension
1706,red,48,blue,,Sound B,Graduated College,pleasant,400698,1756124961284,1756124560586,male,English,conjunctive,597c4133cae3340001135a72,68ac558a34548bbcc96d8f59,68ac4ae76781c84da1367d55,Sound B,2424,3,comprehension
1706,red,48,blue,,Sound B,Graduated College,pleasant,400698,1756124961284,1756124560586,male,English,conjunctive,597c4133cae3340001135a72,68ac558a34548bbcc96d8f59,68ac4ae76781c84da1367d55,Sound B,2168,4,comprehension
1706,red,48,blue,,Blue marble,Graduated College,pleasant,400698,1756124961284,1756124560586,male,English,conjunctive,597c4133cae3340001135a72,68ac558a34548bbcc96d8f59,68ac4ae76781c84da1367d55,Blue marble,71568,1,comprehension-2
1706,red,48,blue,,Everyone,Graduated College,pleasant,400698,1756124961284,1756124560586,male,English,conjunctive,597c4133cae3340001135a72,68ac558a34548bbcc96d8f59,68ac4ae76781c84da1367d55,Everyone,7552,1,comprehension-3
1706,red,48,blue,,FALSE,Graduated College,pleasant,400698,1756124961284,1756124560586,male,English,conjunctive,597c4133cae3340001135a72,68ac558a34548bbcc96d8f59,68ac4ae76781c84da1367d55,FALSE,9655,2,comprehension-3
1706,red,48,blue,,NA,Graduated College,pleasant,400698,1756124961284,1756124560586,male,English,conjunctive,597c4133cae3340001135a72,68ac558a34548bbcc96d8f59,68ac4ae76781c84da1367d55,6,72952,1,critical
1641,blue,36,red,None,Sound A,Graduated College,unpleasant,156547,1756124703178,1756124546631,female,English,conjunctive,6405feae7d6321bfaaf793e8,68ac5579de1cb8f742bf4239,68ac4ae76781c84da1367d55,Sound A,11936,1,comprehension
1641,blue,36,red,None,Sound B,Graduated College,unpleasant,156547,1756124703178,1756124546631,female,English,conjunctive,6405feae7d6321bfaaf793e8,68ac5579de1cb8f742bf4239,68ac4ae76781c84da1367d55,Sound B,4050,2,comprehension
1641,blue,36,red,None,Sound B,Graduated College,unpleasant,156547,1756124703178,1756124546631,female,English,conjunctive,6405feae7d6321bfaaf793e8,68ac5579de1cb8f742bf4239,68ac4ae76781c84da1367d55,Sound B,1679,3,comprehension
1641,blue,36,red,None,Sound B,Graduated College,unpleasant,156547,1756124703178,1756124546631,female,English,conjunctive,6405feae7d6321bfaaf793e8,68ac5579de1cb8f742bf4239,68ac4ae76781c84da1367d55,Sound B,1264,4,comprehension
1641,blue,36,red,None,Red marble,Graduated College,unpleasant,156547,1756124703178,1756124546631,female,English,conjunctive,6405feae7d6321bfaaf793e8,68ac5579de1cb8f742bf4239,68ac4ae76781c84da1367d55,Red marble,5278,1,comprehension-2
1641,blue,36,red,None,Everyone,Graduated College,unpleasant,156547,1756124703178,1756124546631,female,English,conjunctive,6405feae7d6321bfaaf793e8,68ac5579de1cb8f742bf4239,68ac4ae76781c84da1367d55,Everyone,4662,1,comprehension-3
1641,blue,36,red,None,FALSE,Graduated College,unpleasant,156547,1756124703178,1756124546631,female,English,conjunctive,6405feae7d6321bfaaf793e8,68ac5579de1cb8f742bf4239,68ac4ae76781c84da1367d55,FALSE,3053,2,comprehension-3
1641,blue,36,red,None,NA,Graduated College,unpleasant,156547,1756124703178,1756124546631,female,English,conjunctive,6405feae7d6321bfaaf793e8,68ac5579de1cb8f742bf4239,68ac4ae76781c84da1367d55,5,28455,1,critical
1651,red,70,blue,,Sound A,Graduated High-school,pleasant,278411,1756124750274,1756124471863,female,English,conjunctive,5ff07b5ee7a1d23e719e421e,68ac552f576ea5b88cc57843,68ac4ae76781c84da1367d55,Sound A,13307,1,comprehension
1651,red,70,blue,,Sound B,Graduated High-school,pleasant,278411,1756124750274,1756124471863,female,English,conjunctive,5ff07b5ee7a1d23e719e421e,68ac552f576ea5b88cc57843,68ac4ae76781c84da1367d55,Sound B,1675,2,comprehension
1651,red,70,blue,,Sound B,Graduated High-school,pleasant,278411,1756124750274,1756124471863,female,English,conjunctive,5ff07b5ee7a1d23e719e421e,68ac552f576ea5b88cc57843,68ac4ae76781c84da1367d55,Sound B,1598,3,comprehension
1651,red,70,blue,,Sound B,Graduated High-school,pleasant,278411,1756124750274,1756124471863,female,English,conjunctive,5ff07b5ee7a1d23e719e421e,68ac552f576ea5b88cc57843,68ac4ae76781c84da1367d55,Sound B,1322,4,comprehension
1651,red,70,blue,,Blue marble,Graduated High-school,pleasant,278411,1756124750274,1756124471863,female,English,conjunctive,5ff07b5ee7a1d23e719e421e,68ac552f576ea5b88cc57843,68ac4ae76781c84da1367d55,Blue marble,10062,1,comprehension-2
1651,red,70,blue,,Everyone,Graduated High-school,pleasant,278411,1756124750274,1756124471863,female,English,conjunctive,5ff07b5ee7a1d23e719e421e,68ac552f576ea5b88cc57843,68ac4ae76781c84da1367d55,Everyone,7895,1,comprehension-3
1651,red,70,blue,,FALSE,Graduated High-school,pleasant,278411,1756124750274,1756124471863,female,English,conjunctive,5ff07b5ee7a1d23e719e421e,68ac552f576ea5b88cc57843,68ac4ae76781c84da1367d55,FALSE,4338,2,comprehension-3
1651,red,70,blue,,NA,Graduated High-school,pleasant,278411,1756124750274,1756124471863,female,English,conjunctive,5ff07b5ee7a1d23e719e421e,68ac552f576ea5b88cc57843,68ac4ae76781c84da1367d55,4,60739,1,critical
1700,red,42,red,,Sound A,Graduated College,unpleasant,255457,1756124940305,1756124684848,male,,disjunctive,5c77e07939f0e10015bcb33e,68ac5604d629bf08a04760ec,68ac4ae76781c84da1367d55,Sound A,14523,1,comprehension
1700,red,42,red,,Sound A,Graduated College,unpleasant,255457,1756124940305,1756124684848,male,,disjunctive,5c77e07939f0e10015bcb33e,68ac5604d629bf08a04760ec,68ac4ae76781c84da1367d55,Sound B,9189,2,comprehension
1700,red,42,red,,Sound A,Graduated College,unpleasant,255457,1756124940305,1756124684848,male,,disjunctive,5c77e07939f0e10015bcb33e,68ac5604d629bf08a04760ec,68ac4ae76781c84da1367d55,Sound B,17444,3,comprehension
1700,red,42,red,,Sound B,Graduated College,unpleasant,255457,1756124940305,1756124684848,male,,disjunctive,5c77e07939f0e10015bcb33e,68ac5604d629bf08a04760ec,68ac4ae76781c84da1367d55,Sound A,4431,4,comprehension
1700,red,42,red,,Red marble,Graduated College,unpleasant,255457,1756124940305,1756124684848,male,,disjunctive,5c77e07939f0e10015bcb33e,68ac5604d629bf08a04760ec,68ac4ae76781c84da1367d55,Red marble,18146,1,comprehension-2
1700,red,42,red,,Everyone,Graduated College,unpleasant,255457,1756124940305,1756124684848,male,,disjunctive,5c77e07939f0e10015bcb33e,68ac5604d629bf08a04760ec,68ac4ae76781c84da1367d55,Everyone,6548,1,comprehension-3
1700,red,42,red,,FALSE,Graduated College,unpleasant,255457,1756124940305,1756124684848,male,,disjunctive,5c77e07939f0e10015bcb33e,68ac5604d629bf08a04760ec,68ac4ae76781c84da1367d55,FALSE,8249,2,comprehension-3
1700,red,42,red,,NA,Graduated College,unpleasant,255457,1756124940305,1756124684848,male,,disjunctive,5c77e07939f0e10015bcb33e,68ac5604d629bf08a04760ec,68ac4ae76781c84da1367d55,1,47017,1,critical
1624,red,54,blue,,Sound A,Higher degree,neutral,134017,1756124627061,1756124493044,female,,conjunctive,5a8f01d95292b80001235d34,68ac554a475d359e29252570,68ac4ae76781c84da1367d55,Sound A,3529,1,comprehension
1624,red,54,blue,,Sound B,Higher degree,neutral,134017,1756124627061,1756124493044,female,,conjunctive,5a8f01d95292b80001235d34,68ac554a475d359e29252570,68ac4ae76781c84da1367d55,Sound B,6343,2,comprehension
1624,red,54,blue,,Sound B,Higher degree,neutral,134017,1756124627061,1756124493044,female,,conjunctive,5a8f01d95292b80001235d34,68ac554a475d359e29252570,68ac4ae76781c84da1367d55,Sound B,1294,3,comprehension
1624,red,54,blue,,Sound B,Higher degree,neutral,134017,1756124627061,1756124493044,female,,conjunctive,5a8f01d95292b80001235d34,68ac554a475d359e29252570,68ac4ae76781c84da1367d55,Sound B,1411,4,comprehension
1624,red,54,blue,,Blue marble,Higher degree,neutral,134017,1756124627061,1756124493044,female,,conjunctive,5a8f01d95292b80001235d34,68ac554a475d359e29252570,68ac4ae76781c84da1367d55,Blue marble,5290,1,comprehension-2
1624,red,54,blue,,Everyone,Higher degree,neutral,134017,1756124627061,1756124493044,female,,conjunctive,5a8f01d95292b80001235d34,68ac554a475d359e29252570,68ac4ae76781c84da1367d55,Everyone,5176,1,comprehension-3
1624,red,54,blue,,FALSE,Higher degree,neutral,134017,1756124627061,1756124493044,female,,conjunctive,5a8f01d95292b80001235d34,68ac554a475d359e29252570,68ac4ae76781c84da1367d55,FALSE,2256,2,comprehension-3
1624,red,54,blue,,NA,Higher degree,neutral,134017,1756124627061,1756124493044,female,,conjunctive,5a8f01d95292b80001235d34,68ac554a475d359e29252570,68ac4ae76781c84da1367d55,2,28623,1,critical
1644,blue,23,red,,Sound A,Graduated College,neutral,123212,1756124719724,1756124596512,male,English,disjunctive,5d07fc124e753800168ccafe,68ac55b1e9a1dff4454a247a,68ac4ae76781c84da1367d55,Sound A,3392,1,comprehension
1644,blue,23,red,,Sound A,Graduated College,neutral,123212,1756124719724,1756124596512,male,English,disjunctive,5d07fc124e753800168ccafe,68ac55b1e9a1dff4454a247a,68ac4ae76781c84da1367d55,Sound A,1734,2,comprehension
1644,blue,23,red,,Sound A,Graduated College,neutral,123212,1756124719724,1756124596512,male,English,disjunctive,5d07fc124e753800168ccafe,68ac55b1e9a1dff4454a247a,68ac4ae76781c84da1367d55,Sound A,2160,3,comprehension
1644,blue,23,red,,Sound B,Graduated College,neutral,123212,1756124719724,1756124596512,male,English,disjunctive,5d07fc124e753800168ccafe,68ac55b1e9a1dff4454a247a,68ac4ae76781c84da1367d55,Sound B,503,4,comprehension
1644,blue,23,red,,Red marble,Graduated College,neutral,123212,1756124719724,1756124596512,male,English,disjunctive,5d07fc124e753800168ccafe,68ac55b1e9a1dff4454a247a,68ac4ae76781c84da1367d55,Red marble,4681,1,comprehension-2
1644,blue,23,red,,Everyone,Graduated College,neutral,123212,1756124719724,1756124596512,male,English,disjunctive,5d07fc124e753800168ccafe,68ac55b1e9a1dff4454a247a,68ac4ae76781c84da1367d55,Everyone,2281,1,comprehension-3
1644,blue,23,red,,FALSE,Graduated College,neutral,123212,1756124719724,1756124596512,male,English,disjunctive,5d07fc124e753800168ccafe,68ac55b1e9a1dff4454a247a,68ac4ae76781c84da1367d55,FALSE,2458,2,comprehension-3
1644,blue,23,red,,NA,Graduated College,neutral,123212,1756124719724,1756124596512,male,English,disjunctive,5d07fc124e753800168ccafe,68ac55b1e9a1dff4454a247a,68ac4ae76781c84da1367d55,2,45602,1,critical
1658,blue,22,red,,Sound A,Graduated High-school,pleasant,241874,1756124770203,1756124528329,male,english,conjunctive,6645ead2d999bda561f525ea,68ac55651c3d94c6ff6b4e71,68ac4ae76781c84da1367d55,Sound B,9225,1,comprehension
1658,blue,22,red,,Sound B,Graduated High-school,pleasant,241874,1756124770203,1756124528329,male,english,conjunctive,6645ead2d999bda561f525ea,68ac55651c3d94c6ff6b4e71,68ac4ae76781c84da1367d55,Sound A,82942,2,comprehension
1658,blue,22,red,,Sound B,Graduated High-school,pleasant,241874,1756124770203,1756124528329,male,english,conjunctive,6645ead2d999bda561f525ea,68ac55651c3d94c6ff6b4e71,68ac4ae76781c84da1367d55,Sound B,3185,3,comprehension
1658,blue,22,red,,Sound B,Graduated High-school,pleasant,241874,1756124770203,1756124528329,male,english,conjunctive,6645ead2d999bda561f525ea,68ac55651c3d94c6ff6b4e71,68ac4ae76781c84da1367d55,Sound B,4245,4,comprehension
1658,blue,22,red,,Red marble,Graduated High-school,pleasant,241874,1756124770203,1756124528329,male,english,conjunctive,6645ead2d999bda561f525ea,68ac55651c3d94c6ff6b4e71,68ac4ae76781c84da1367d55,Red marble,13740,1,comprehension-2
1658,blue,22,red,,Everyone,Graduated High-school,pleasant,241874,1756124770203,1756124528329,male,english,conjunctive,6645ead2d999bda561f525ea,68ac55651c3d94c6ff6b4e71,68ac4ae76781c84da1367d55,Everyone,4161,1,comprehension-3
1658,blue,22,red,,FALSE,Graduated High-school,pleasant,241874,1756124770203,1756124528329,male,english,conjunctive,6645ead2d999bda561f525ea,68ac55651c3d94c6ff6b4e71,68ac4ae76781c84da1367d55,TRUE,3591,2,comprehension-3
1658,blue,22,red,,NA,Graduated High-school,pleasant,241874,1756124770203,1756124528329,male,english,conjunctive,6645ead2d999bda561f525ea,68ac55651c3d94c6ff6b4e71,68ac4ae76781c84da1367d55,1,29008,1,critical
1626,red,51,red,,Sound A,Graduated College,pleasant,221881,1756124644306,1756124422425,female,English,conjunctive,666f5c8b54f3cb859fcd9706,68ac54fd55222fdfe626569d,68ac4ae76781c84da1367d55,Sound A,11809,1,comprehension
1626,red,51,red,,Sound B,Graduated College,pleasant,221881,1756124644306,1756124422425,female,English,conjunctive,666f5c8b54f3cb859fcd9706,68ac54fd55222fdfe626569d,68ac4ae76781c84da1367d55,Sound B,6042,2,comprehension
1626,red,51,red,,Sound B,Graduated College,pleasant,221881,1756124644306,1756124422425,female,English,conjunctive,666f5c8b54f3cb859fcd9706,68ac54fd55222fdfe626569d,68ac4ae76781c84da1367d55,Sound B,1235,3,comprehension
1626,red,51,red,,Sound B,Graduated College,pleasant,221881,1756124644306,1756124422425,female,English,conjunctive,666f5c8b54f3cb859fcd9706,68ac54fd55222fdfe626569d,68ac4ae76781c84da1367d55,Sound B,1642,4,comprehension
1626,red,51,red,,Red marble,Graduated College,pleasant,221881,1756124644306,1756124422425,female,English,conjunctive,666f5c8b54f3cb859fcd9706,68ac54fd55222fdfe626569d,68ac4ae76781c84da1367d55,Red marble,12718,1,comprehension-2
1626,red,51,red,,Everyone,Graduated College,pleasant,221881,1756124644306,1756124422425,female,English,conjunctive,666f5c8b54f3cb859fcd9706,68ac54fd55222fdfe626569d,68ac4ae76781c84da1367d55,Everyone,6324,1,comprehension-3
1626,red,51,red,,FALSE,Graduated College,pleasant,221881,1756124644306,1756124422425,female,English,conjunctive,666f5c8b54f3cb859fcd9706,68ac54fd55222fdfe626569d,68ac4ae76781c84da1367d55,FALSE,5279,2,comprehension-3
1626,red,51,red,,NA,Graduated College,pleasant,221881,1756124644306,1756124422425,female,English,conjunctive,666f5c8b54f3cb859fcd9706,68ac54fd55222fdfe626569d,68ac4ae76781c84da1367d55,7,41282,1,critical
1649,blue,38,red,,Sound A,Graduated College,unpleasant,209037,1756124737070,1756124528033,male,english,conjunctive,65537e14439274fe5036b4d2,68ac5565bc2c9bbdfe5353b1,68ac4ae76781c84da1367d55,Sound A,27964,1,comprehension
1649,blue,38,red,,Sound B,Graduated College,unpleasant,209037,1756124737070,1756124528033,male,english,conjunctive,65537e14439274fe5036b4d2,68ac5565bc2c9bbdfe5353b1,68ac4ae76781c84da1367d55,Sound B,17152,2,comprehension
1649,blue,38,red,,Sound B,Graduated College,unpleasant,209037,1756124737070,1756124528033,male,english,conjunctive,65537e14439274fe5036b4d2,68ac5565bc2c9bbdfe5353b1,68ac4ae76781c84da1367d55,Sound B,4872,3,comprehension
1649,blue,38,red,,Sound B,Graduated College,unpleasant,209037,1756124737070,1756124528033,male,english,conjunctive,65537e14439274fe5036b4d2,68ac5565bc2c9bbdfe5353b1,68ac4ae76781c84da1367d55,Sound B,7840,4,comprehension
1649,blue,38,red,,Red marble,Graduated College,unpleasant,209037,1756124737070,1756124528033,male,english,conjunctive,65537e14439274fe5036b4d2,68ac5565bc2c9bbdfe5353b1,68ac4ae76781c84da1367d55,Red marble,6456,1,comprehension-2
1649,blue,38,red,,Everyone,Graduated College,unpleasant,209037,1756124737070,1756124528033,male,english,conjunctive,65537e14439274fe5036b4d2,68ac5565bc2c9bbdfe5353b1,68ac4ae76781c84da1367d55,Everyone,7980,1,comprehension-3
1649,blue,38,red,,FALSE,Graduated College,unpleasant,209037,1756124737070,1756124528033,male,english,conjunctive,65537e14439274fe5036b4d2,68ac5565bc2c9bbdfe5353b1,68ac4ae76781c84da1367d55,FALSE,4240,2,comprehension-3
1649,blue,38,red,,NA,Graduated College,unpleasant,209037,1756124737070,1756124528033,male,english,conjunctive,65537e14439274fe5036b4d2,68ac5565bc2c9bbdfe5353b1,68ac4ae76781c84da1367d55,4,34043,1,critical
1653,blue,62,blue,,Sound A,Graduated College,unpleasant,238996,1756124756390,1756124517394,female,English,conjunctive,605f61f6a2529d666698844b,68ac554bd93a9e5019781431,68ac4ae76781c84da1367d55,Sound A,9745,1,comprehension
1653,blue,62,blue,,Sound B,Graduated College,unpleasant,238996,1756124756390,1756124517394,female,English,conjunctive,605f61f6a2529d666698844b,68ac554bd93a9e5019781431,68ac4ae76781c84da1367d55,Sound B,8423,2,comprehension
1653,blue,62,blue,,Sound B,Graduated College,unpleasant,238996,1756124756390,1756124517394,female,English,conjunctive,605f61f6a2529d666698844b,68ac554bd93a9e5019781431,68ac4ae76781c84da1367d55,Sound B,1856,3,comprehension
1653,blue,62,blue,,Sound B,Graduated College,unpleasant,238996,1756124756390,1756124517394,female,English,conjunctive,605f61f6a2529d666698844b,68ac554bd93a9e5019781431,68ac4ae76781c84da1367d55,Sound B,1385,4,comprehension
1653,blue,62,blue,,Blue marble,Graduated College,unpleasant,238996,1756124756390,1756124517394,female,English,conjunctive,605f61f6a2529d666698844b,68ac554bd93a9e5019781431,68ac4ae76781c84da1367d55,Blue marble,9480,1,comprehension-2
1653,blue,62,blue,,Everyone,Graduated College,unpleasant,238996,1756124756390,1756124517394,female,English,conjunctive,605f61f6a2529d666698844b,68ac554bd93a9e5019781431,68ac4ae76781c84da1367d55,Everyone,6088,1,comprehension-3
1653,blue,62,blue,,FALSE,Graduated College,unpleasant,238996,1756124756390,1756124517394,female,English,conjunctive,605f61f6a2529d666698844b,68ac554bd93a9e5019781431,68ac4ae76781c84da1367d55,FALSE,3768,2,comprehension-3
1653,blue,62,blue,,NA,Graduated College,unpleasant,238996,1756124756390,1756124517394,female,English,conjunctive,605f61f6a2529d666698844b,68ac554bd93a9e5019781431,68ac4ae76781c84da1367d55,7,39144,1,critical
1669,red,38,red,,Sound A,Graduated High-school,pleasant,296834,1756124836983,1756124540149,female,English,conjunctive,5d701566b1a79d00165c65ae,68ac556bbc948b671bb16efc,68ac4ae76781c84da1367d55,Sound A,18528,1,comprehension
1669,red,38,red,,Sound B,Graduated High-school,pleasant,296834,1756124836983,1756124540149,female,English,conjunctive,5d701566b1a79d00165c65ae,68ac556bbc948b671bb16efc,68ac4ae76781c84da1367d55,Sound B,5225,2,comprehension
1669,red,38,red,,Sound B,Graduated High-school,pleasant,296834,1756124836983,1756124540149,female,English,conjunctive,5d701566b1a79d00165c65ae,68ac556bbc948b671bb16efc,68ac4ae76781c84da1367d55,Sound B,3528,3,comprehension
1669,red,38,red,,Sound B,Graduated High-school,pleasant,296834,1756124836983,1756124540149,female,English,conjunctive,5d701566b1a79d00165c65ae,68ac556bbc948b671bb16efc,68ac4ae76781c84da1367d55,Sound B,1905,4,comprehension
1669,red,38,red,,Red marble,Graduated High-school,pleasant,296834,1756124836983,1756124540149,female,English,conjunctive,5d701566b1a79d00165c65ae,68ac556bbc948b671bb16efc,68ac4ae76781c84da1367d55,Red marble,10237,1,comprehension-2
1669,red,38,red,,Everyone,Graduated High-school,pleasant,296834,1756124836983,1756124540149,female,English,conjunctive,5d701566b1a79d00165c65ae,68ac556bbc948b671bb16efc,68ac4ae76781c84da1367d55,Everyone,4028,1,comprehension-3
1669,red,38,red,,FALSE,Graduated High-school,pleasant,296834,1756124836983,1756124540149,female,English,conjunctive,5d701566b1a79d00165c65ae,68ac556bbc948b671bb16efc,68ac4ae76781c84da1367d55,FALSE,3072,2,comprehension-3
1669,red,38,red,,NA,Graduated High-school,pleasant,296834,1756124836983,1756124540149,female,English,conjunctive,5d701566b1a79d00165c65ae,68ac556bbc948b671bb16efc,68ac4ae76781c84da1367d55,3,68962,1,critical
1671,blue,39,blue,,Sound A,Graduated High-school,neutral,239782,1756124839041,1756124599259,male,english,disjunctive,582f8bbd4cadc80001b0fbd3,68ac54d514c76fc2bba1e104,68ac4ae76781c84da1367d55,Sound A,27086,1,comprehension
1671,blue,39,blue,,Sound A,Graduated High-school,neutral,239782,1756124839041,1756124599259,male,english,disjunctive,582f8bbd4cadc80001b0fbd3,68ac54d514c76fc2bba1e104,68ac4ae76781c84da1367d55,Sound A,4775,2,comprehension
1671,blue,39,blue,,Sound A,Graduated High-school,neutral,239782,1756124839041,1756124599259,male,english,disjunctive,582f8bbd4cadc80001b0fbd3,68ac54d514c76fc2bba1e104,68ac4ae76781c84da1367d55,Sound B,4877,3,comprehension
1671,blue,39,blue,,Sound B,Graduated High-school,neutral,239782,1756124839041,1756124599259,male,english,disjunctive,582f8bbd4cadc80001b0fbd3,68ac54d514c76fc2bba1e104,68ac4ae76781c84da1367d55,Sound B,2637,4,comprehension
1671,blue,39,blue,,Blue marble,Graduated High-school,neutral,239782,1756124839041,1756124599259,male,english,disjunctive,582f8bbd4cadc80001b0fbd3,68ac54d514c76fc2bba1e104,68ac4ae76781c84da1367d55,Blue marble,8710,1,comprehension-2
1671,blue,39,blue,,Everyone,Graduated High-school,neutral,239782,1756124839041,1756124599259,male,english,disjunctive,582f8bbd4cadc80001b0fbd3,68ac54d514c76fc2bba1e104,68ac4ae76781c84da1367d55,Everyone,30344,1,comprehension-3
1671,blue,39,blue,,FALSE,Graduated High-school,neutral,239782,1756124839041,1756124599259,male,english,disjunctive,582f8bbd4cadc80001b0fbd3,68ac54d514c76fc2bba1e104,68ac4ae76781c84da1367d55,FALSE,4070,2,comprehension-3
1671,blue,39,blue,,NA,Graduated High-school,neutral,239782,1756124839041,1756124599259,male,english,disjunctive,582f8bbd4cadc80001b0fbd3,68ac54d514c76fc2bba1e104,68ac4ae76781c84da1367d55,3,95452,1,critical
1681,blue,46,blue,,Sound A,Graduated High-school,pleasant,217368,1756124870403,1756124653035,female,English,disjunctive,60a2a8570a0f9cc00d6b9d1a,68ac55dfbde527a3d0aedc9d,68ac4ae76781c84da1367d55,Sound A,9742,1,comprehension
1681,blue,46,blue,,Sound A,Graduated High-school,pleasant,217368,1756124870403,1756124653035,female,English,disjunctive,60a2a8570a0f9cc00d6b9d1a,68ac55dfbde527a3d0aedc9d,68ac4ae76781c84da1367d55,Sound A,725,2,comprehension
1681,blue,46,blue,,Sound A,Graduated High-school,pleasant,217368,1756124870403,1756124653035,female,English,disjunctive,60a2a8570a0f9cc00d6b9d1a,68ac55dfbde527a3d0aedc9d,68ac4ae76781c84da1367d55,Sound B,7732,3,comprehension
1681,blue,46,blue,,Sound B,Graduated High-school,pleasant,217368,1756124870403,1756124653035,female,English,disjunctive,60a2a8570a0f9cc00d6b9d1a,68ac55dfbde527a3d0aedc9d,68ac4ae76781c84da1367d55,Sound B,7504,4,comprehension
1681,blue,46,blue,,Blue marble,Graduated High-school,pleasant,217368,1756124870403,1756124653035,female,English,disjunctive,60a2a8570a0f9cc00d6b9d1a,68ac55dfbde527a3d0aedc9d,68ac4ae76781c84da1367d55,Blue marble,8063,1,comprehension-2
1681,blue,46,blue,,Everyone,Graduated High-school,pleasant,217368,1756124870403,1756124653035,female,English,disjunctive,60a2a8570a0f9cc00d6b9d1a,68ac55dfbde527a3d0aedc9d,68ac4ae76781c84da1367d55,Everyone,4264,1,comprehension-3
1681,blue,46,blue,,FALSE,Graduated High-school,pleasant,217368,1756124870403,1756124653035,female,English,disjunctive,60a2a8570a0f9cc00d6b9d1a,68ac55dfbde527a3d0aedc9d,68ac4ae76781c84da1367d55,FALSE,3129,2,comprehension-3
1681,blue,46,blue,,NA,Graduated High-school,pleasant,217368,1756124870403,1756124653035,female,English,disjunctive,60a2a8570a0f9cc00d6b9d1a,68ac55dfbde527a3d0aedc9d,68ac4ae76781c84da1367d55,1,65113,1,critical
1683,blue,44,red,,Sound A,Graduated High-school,unpleasant,247028,1756124882027,1756124634999,female,English,disjunctive,57027b6768c641000e0c894a,68ac55ca076f309199decddc,68ac4ae76781c84da1367d55,Sound A,17803,1,comprehension
1683,blue,44,red,,Sound A,Graduated High-school,unpleasant,247028,1756124882027,1756124634999,female,English,disjunctive,57027b6768c641000e0c894a,68ac55ca076f309199decddc,68ac4ae76781c84da1367d55,Sound A,28380,2,comprehension
1683,blue,44,red,,Sound A,Graduated High-school,unpleasant,247028,1756124882027,1756124634999,female,English,disjunctive,57027b6768c641000e0c894a,68ac55ca076f309199decddc,68ac4ae76781c84da1367d55,Sound B,23759,3,comprehension
1683,blue,44,red,,Sound B,Graduated High-school,unpleasant,247028,1756124882027,1756124634999,female,English,disjunctive,57027b6768c641000e0c894a,68ac55ca076f309199decddc,68ac4ae76781c84da1367d55,Sound B,7382,4,comprehension
1683,blue,44,red,,Red marble,Graduated High-school,unpleasant,247028,1756124882027,1756124634999,female,English,disjunctive,57027b6768c641000e0c894a,68ac55ca076f309199decddc,68ac4ae76781c84da1367d55,Red marble,10495,1,comprehension-2
1683,blue,44,red,,Everyone,Graduated High-school,unpleasant,247028,1756124882027,1756124634999,female,English,disjunctive,57027b6768c641000e0c894a,68ac55ca076f309199decddc,68ac4ae76781c84da1367d55,Everyone,4786,1,comprehension-3
1683,blue,44,red,,FALSE,Graduated High-school,unpleasant,247028,1756124882027,1756124634999,female,English,disjunctive,57027b6768c641000e0c894a,68ac55ca076f309199decddc,68ac4ae76781c84da1367d55,FALSE,3989,2,comprehension-3
1683,blue,44,red,,NA,Graduated High-school,unpleasant,247028,1756124882027,1756124634999,female,English,disjunctive,57027b6768c641000e0c894a,68ac55ca076f309199decddc,68ac4ae76781c84da1367d55,4,56934,1,critical
1678,blue,51,red,,Sound A,Graduated College,unpleasant,262650,1756124859895,1756124597245,male,English,conjunctive,68109d22b0ba84c17333ecab,68ac5567488395c6865de709,68ac4ae76781c84da1367d55,Sound A,10290,1,comprehension
1678,blue,51,red,,Sound B,Graduated College,unpleasant,262650,1756124859895,1756124597245,male,English,conjunctive,68109d22b0ba84c17333ecab,68ac5567488395c6865de709,68ac4ae76781c84da1367d55,Sound B,20974,2,comprehension
1678,blue,51,red,,Sound B,Graduated College,unpleasant,262650,1756124859895,1756124597245,male,English,conjunctive,68109d22b0ba84c17333ecab,68ac5567488395c6865de709,68ac4ae76781c84da1367d55,Sound B,2665,3,comprehension
1678,blue,51,red,,Sound B,Graduated College,unpleasant,262650,1756124859895,1756124597245,male,English,conjunctive,68109d22b0ba84c17333ecab,68ac5567488395c6865de709,68ac4ae76781c84da1367d55,Sound B,1991,4,comprehension
1678,blue,51,red,,Red marble,Graduated College,unpleasant,262650,1756124859895,1756124597245,male,English,conjunctive,68109d22b0ba84c17333ecab,68ac5567488395c6865de709,68ac4ae76781c84da1367d55,Red marble,6934,1,comprehension-2
1678,blue,51,red,,Everyone,Graduated College,unpleasant,262650,1756124859895,1756124597245,male,English,conjunctive,68109d22b0ba84c17333ecab,68ac5567488395c6865de709,68ac4ae76781c84da1367d55,Everyone,26856,1,comprehension-3
1678,blue,51,red,,FALSE,Graduated College,unpleasant,262650,1756124859895,1756124597245,male,English,conjunctive,68109d22b0ba84c17333ecab,68ac5567488395c6865de709,68ac4ae76781c84da1367d55,FALSE,4055,2,comprehension-3
1678,blue,51,red,,NA,Graduated College,unpleasant,262650,1756124859895,1756124597245,male,English,conjunctive,68109d22b0ba84c17333ecab,68ac5567488395c6865de709,68ac4ae76781c84da1367d55,7,48006,1,critical
1701,blue,39,blue,,Sound A,Graduated College,neutral,177487,1756124948107,1756124770620,female,english,conjunctive,66be7c2b8e62080ff8341d96,68ac56593c7e44169140baeb,68ac4ae76781c84da1367d55,Sound A,13289,1,comprehension
1701,blue,39,blue,,Sound B,Graduated College,neutral,177487,1756124948107,1756124770620,female,english,conjunctive,66be7c2b8e62080ff8341d96,68ac56593c7e44169140baeb,68ac4ae76781c84da1367d55,Sound B,2192,2,comprehension
1701,blue,39,blue,,Sound B,Graduated College,neutral,177487,1756124948107,1756124770620,female,english,conjunctive,66be7c2b8e62080ff8341d96,68ac56593c7e44169140baeb,68ac4ae76781c84da1367d55,Sound B,1167,3,comprehension
1701,blue,39,blue,,Sound B,Graduated College,neutral,177487,1756124948107,1756124770620,female,english,conjunctive,66be7c2b8e62080ff8341d96,68ac56593c7e44169140baeb,68ac4ae76781c84da1367d55,Sound B,977,4,comprehension
1701,blue,39,blue,,Blue marble,Graduated College,neutral,177487,1756124948107,1756124770620,female,english,conjunctive,66be7c2b8e62080ff8341d96,68ac56593c7e44169140baeb,68ac4ae76781c84da1367d55,Blue marble,8649,1,comprehension-2
1701,blue,39,blue,,Everyone,Graduated College,neutral,177487,1756124948107,1756124770620,female,english,conjunctive,66be7c2b8e62080ff8341d96,68ac56593c7e44169140baeb,68ac4ae76781c84da1367d55,Everyone,3585,1,comprehension-3
1701,blue,39,blue,,FALSE,Graduated College,neutral,177487,1756124948107,1756124770620,female,english,conjunctive,66be7c2b8e62080ff8341d96,68ac56593c7e44169140baeb,68ac4ae76781c84da1367d55,FALSE,2831,2,comprehension-3
1701,blue,39,blue,,NA,Graduated College,neutral,177487,1756124948107,1756124770620,female,english,conjunctive,66be7c2b8e62080ff8341d96,68ac56593c7e44169140baeb,68ac4ae76781c84da1367d55,2,46796,1,critical
1642,blue,54,red,,Sound A,Graduated High-school,unpleasant,380498,1756124709146,1756124328648,female,English,disjunctive,5f85f217f845b10f388f2ce7,68ac54a1029da8000102d640,68ac4ae76781c84da1367d55,Sound A,17867,1,comprehension
1642,blue,54,red,,Sound A,Graduated High-school,unpleasant,380498,1756124709146,1756124328648,female,English,disjunctive,5f85f217f845b10f388f2ce7,68ac54a1029da8000102d640,68ac4ae76781c84da1367d55,Sound A,19246,2,comprehension
1642,blue,54,red,,Sound A,Graduated High-school,unpleasant,380498,1756124709146,1756124328648,female,English,disjunctive,5f85f217f845b10f388f2ce7,68ac54a1029da8000102d640,68ac4ae76781c84da1367d55,Sound A,13397,3,comprehension
1642,blue,54,red,,Sound B,Graduated High-school,unpleasant,380498,1756124709146,1756124328648,female,English,disjunctive,5f85f217f845b10f388f2ce7,68ac54a1029da8000102d640,68ac4ae76781c84da1367d55,Sound B,2555,4,comprehension
1642,blue,54,red,,Red marble,Graduated High-school,unpleasant,380498,1756124709146,1756124328648,female,English,disjunctive,5f85f217f845b10f388f2ce7,68ac54a1029da8000102d640,68ac4ae76781c84da1367d55,Red marble,19456,1,comprehension-2
1642,blue,54,red,,Everyone,Graduated High-school,unpleasant,380498,1756124709146,1756124328648,female,English,disjunctive,5f85f217f845b10f388f2ce7,68ac54a1029da8000102d640,68ac4ae76781c84da1367d55,Everyone,6932,1,comprehension-3
1642,blue,54,red,,FALSE,Graduated High-school,unpleasant,380498,1756124709146,1756124328648,female,English,disjunctive,5f85f217f845b10f388f2ce7,68ac54a1029da8000102d640,68ac4ae76781c84da1367d55,FALSE,3593,2,comprehension-3
1642,blue,54,red,,NA,Graduated High-school,unpleasant,380498,1756124709146,1756124328648,female,English,disjunctive,5f85f217f845b10f388f2ce7,68ac54a1029da8000102d640,68ac4ae76781c84da1367d55,7,82337,1,critical
1646,red,29,blue,no,Sound A,Graduated College,pleasant,215368,1756124727451,1756124512083,male,english,disjunctive,5b68c9eb87af310001584803,68ac55358742ed4256ca8e06,68ac4ae76781c84da1367d55,Sound A,7824,1,comprehension
1646,red,29,blue,no,Sound A,Graduated College,pleasant,215368,1756124727451,1756124512083,male,english,disjunctive,5b68c9eb87af310001584803,68ac55358742ed4256ca8e06,68ac4ae76781c84da1367d55,Sound B,11311,2,comprehension
1646,red,29,blue,no,Sound A,Graduated College,pleasant,215368,1756124727451,1756124512083,male,english,disjunctive,5b68c9eb87af310001584803,68ac55358742ed4256ca8e06,68ac4ae76781c84da1367d55,Sound A,6296,3,comprehension
1646,red,29,blue,no,Sound B,Graduated College,pleasant,215368,1756124727451,1756124512083,male,english,disjunctive,5b68c9eb87af310001584803,68ac55358742ed4256ca8e06,68ac4ae76781c84da1367d55,Sound B,2416,4,comprehension
1646,red,29,blue,no,Blue marble,Graduated College,pleasant,215368,1756124727451,1756124512083,male,english,disjunctive,5b68c9eb87af310001584803,68ac55358742ed4256ca8e06,68ac4ae76781c84da1367d55,Blue marble,6328,1,comprehension-2
1646,red,29,blue,no,Everyone,Graduated College,pleasant,215368,1756124727451,1756124512083,male,english,disjunctive,5b68c9eb87af310001584803,68ac55358742ed4256ca8e06,68ac4ae76781c84da1367d55,Everyone,3496,1,comprehension-3
1646,red,29,blue,no,FALSE,Graduated College,pleasant,215368,1756124727451,1756124512083,male,english,disjunctive,5b68c9eb87af310001584803,68ac55358742ed4256ca8e06,68ac4ae76781c84da1367d55,FALSE,1976,2,comprehension-3
1646,red,29,blue,no,NA,Graduated College,pleasant,215368,1756124727451,1756124512083,male,english,disjunctive,5b68c9eb87af310001584803,68ac55358742ed4256ca8e06,68ac4ae76781c84da1367d55,1,34616,1,critical
1647,red,39,blue,,Sound A,Graduated College,neutral,376363,1756124731080,1756124354717,male,english,disjunctive,60ddc62b071a009e0b0c2922,68ac54b2d9415250f743f36c,68ac4ae76781c84da1367d55,Sound A,17390,1,comprehension
1647,red,39,blue,,Sound A,Graduated College,neutral,376363,1756124731080,1756124354717,male,english,disjunctive,60ddc62b071a009e0b0c2922,68ac54b2d9415250f743f36c,68ac4ae76781c84da1367d55,Sound A,2431,2,comprehension
1647,red,39,blue,,Sound A,Graduated College,neutral,376363,1756124731080,1756124354717,male,english,disjunctive,60ddc62b071a009e0b0c2922,68ac54b2d9415250f743f36c,68ac4ae76781c84da1367d55,Sound A,1792,3,comprehension
1647,red,39,blue,,Sound B,Graduated College,neutral,376363,1756124731080,1756124354717,male,english,disjunctive,60ddc62b071a009e0b0c2922,68ac54b2d9415250f743f36c,68ac4ae76781c84da1367d55,Sound B,2425,4,comprehension
1647,red,39,blue,,Blue marble,Graduated College,neutral,376363,1756124731080,1756124354717,male,english,disjunctive,60ddc62b071a009e0b0c2922,68ac54b2d9415250f743f36c,68ac4ae76781c84da1367d55,Blue marble,9871,1,comprehension-2
1647,red,39,blue,,Everyone,Graduated College,neutral,376363,1756124731080,1756124354717,male,english,disjunctive,60ddc62b071a009e0b0c2922,68ac54b2d9415250f743f36c,68ac4ae76781c84da1367d55,Everyone,5080,1,comprehension-3
1647,red,39,blue,,FALSE,Graduated College,neutral,376363,1756124731080,1756124354717,male,english,disjunctive,60ddc62b071a009e0b0c2922,68ac54b2d9415250f743f36c,68ac4ae76781c84da1367d55,FALSE,4872,2,comprehension-3
1647,red,39,blue,,NA,Graduated College,neutral,376363,1756124731080,1756124354717,male,english,disjunctive,60ddc62b071a009e0b0c2922,68ac54b2d9415250f743f36c,68ac4ae76781c84da1367d55,5,53928,1,critical
1655,red,42,blue,,Sound A,Higher degree,unpleasant,223369,1756124768928,1756124545559,female,English,disjunctive,590cfded18837300010dfd8c,68ac55700e1637afebe5d65c,68ac4ae76781c84da1367d55,Sound A,24270,1,comprehension
1655,red,42,blue,,Sound A,Higher degree,unpleasant,223369,1756124768928,1756124545559,female,English,disjunctive,590cfded18837300010dfd8c,68ac55700e1637afebe5d65c,68ac4ae76781c84da1367d55,Sound B,14243,2,comprehension
1655,red,42,blue,,Sound A,Higher degree,unpleasant,223369,1756124768928,1756124545559,female,English,disjunctive,590cfded18837300010dfd8c,68ac55700e1637afebe5d65c,68ac4ae76781c84da1367d55,Sound B,2385,3,comprehension
1655,red,42,blue,,Sound B,Higher degree,unpleasant,223369,1756124768928,1756124545559,female,English,disjunctive,590cfded18837300010dfd8c,68ac55700e1637afebe5d65c,68ac4ae76781c84da1367d55,Sound B,1945,4,comprehension
1655,red,42,blue,,Blue marble,Higher degree,unpleasant,223369,1756124768928,1756124545559,female,English,disjunctive,590cfded18837300010dfd8c,68ac55700e1637afebe5d65c,68ac4ae76781c84da1367d55,Blue marble,7768,1,comprehension-2
1655,red,42,blue,,Everyone,Higher degree,unpleasant,223369,1756124768928,1756124545559,female,English,disjunctive,590cfded18837300010dfd8c,68ac55700e1637afebe5d65c,68ac4ae76781c84da1367d55,Everyone,6295,1,comprehension-3
1655,red,42,blue,,FALSE,Higher degree,unpleasant,223369,1756124768928,1756124545559,female,English,disjunctive,590cfded18837300010dfd8c,68ac55700e1637afebe5d65c,68ac4ae76781c84da1367d55,FALSE,5082,2,comprehension-3
1655,red,42,blue,,NA,Higher degree,unpleasant,223369,1756124768928,1756124545559,female,English,disjunctive,590cfded18837300010dfd8c,68ac55700e1637afebe5d65c,68ac4ae76781c84da1367d55,1,54867,1,critical
1666,red,73,red,,Sound A,Graduated College,unpleasant,141894,1756124823163,1756124681269,female,english,conjunctive,669ed03f13f57e07092e1877,68ac5602c73fa6bdf45e82ce,68ac4ae76781c84da1367d55,Sound A,15840,1,comprehension
1666,red,73,red,,Sound B,Graduated College,unpleasant,141894,1756124823163,1756124681269,female,english,conjunctive,669ed03f13f57e07092e1877,68ac5602c73fa6bdf45e82ce,68ac4ae76781c84da1367d55,Sound B,2496,2,comprehension
1666,red,73,red,,Sound B,Graduated College,unpleasant,141894,1756124823163,1756124681269,female,english,conjunctive,669ed03f13f57e07092e1877,68ac5602c73fa6bdf45e82ce,68ac4ae76781c84da1367d55,Sound A,4952,3,comprehension
1666,red,73,red,,Sound B,Graduated College,unpleasant,141894,1756124823163,1756124681269,female,english,conjunctive,669ed03f13f57e07092e1877,68ac5602c73fa6bdf45e82ce,68ac4ae76781c84da1367d55,Sound A,1632,4,comprehension
1666,red,73,red,,Red marble,Graduated College,unpleasant,141894,1756124823163,1756124681269,female,english,conjunctive,669ed03f13f57e07092e1877,68ac5602c73fa6bdf45e82ce,68ac4ae76781c84da1367d55,Red marble,8680,1,comprehension-2
1666,red,73,red,,Everyone,Graduated College,unpleasant,141894,1756124823163,1756124681269,female,english,conjunctive,669ed03f13f57e07092e1877,68ac5602c73fa6bdf45e82ce,68ac4ae76781c84da1367d55,Everyone,3696,1,comprehension-3
1666,red,73,red,,FALSE,Graduated College,unpleasant,141894,1756124823163,1756124681269,female,english,conjunctive,669ed03f13f57e07092e1877,68ac5602c73fa6bdf45e82ce,68ac4ae76781c84da1367d55,FALSE,3920,2,comprehension-3
1666,red,73,red,,NA,Graduated College,unpleasant,141894,1756124823163,1756124681269,female,english,conjunctive,669ed03f13f57e07092e1877,68ac5602c73fa6bdf45e82ce,68ac4ae76781c84da1367d55,1,33040,1,critical
1691,red,27,red,,Sound A,Graduated College,pleasant,258436,1756124906305,1756124647869,male,English,conjunctive,67aa691b6df91bf4fdf516b4,68ac55d89334177f43d97d02,68ac4ae76781c84da1367d55,Sound A,6605,1,comprehension
1691,red,27,red,,Sound B,Graduated College,pleasant,258436,1756124906305,1756124647869,male,English,conjunctive,67aa691b6df91bf4fdf516b4,68ac55d89334177f43d97d02,68ac4ae76781c84da1367d55,Sound B,4089,2,comprehension
1691,red,27,red,,Sound B,Graduated College,pleasant,258436,1756124906305,1756124647869,male,English,conjunctive,67aa691b6df91bf4fdf516b4,68ac55d89334177f43d97d02,68ac4ae76781c84da1367d55,Sound A,3450,3,comprehension
1691,red,27,red,,Sound B,Graduated College,pleasant,258436,1756124906305,1756124647869,male,English,conjunctive,67aa691b6df91bf4fdf516b4,68ac55d89334177f43d97d02,68ac4ae76781c84da1367d55,Sound B,2679,4,comprehension
1691,red,27,red,,Red marble,Graduated College,pleasant,258436,1756124906305,1756124647869,male,English,conjunctive,67aa691b6df91bf4fdf516b4,68ac55d89334177f43d97d02,68ac4ae76781c84da1367d55,Red marble,22464,1,comprehension-2
1691,red,27,red,,Everyone,Graduated College,pleasant,258436,1756124906305,1756124647869,male,English,conjunctive,67aa691b6df91bf4fdf516b4,68ac55d89334177f43d97d02,68ac4ae76781c84da1367d55,Everyone,4035,1,comprehension-3
1691,red,27,red,,FALSE,Graduated College,pleasant,258436,1756124906305,1756124647869,male,English,conjunctive,67aa691b6df91bf4fdf516b4,68ac55d89334177f43d97d02,68ac4ae76781c84da1367d55,FALSE,3363,2,comprehension-3
1691,red,27,red,,NA,Graduated College,pleasant,258436,1756124906305,1756124647869,male,English,conjunctive,67aa691b6df91bf4fdf516b4,68ac55d89334177f43d97d02,68ac4ae76781c84da1367d55,5,64635,1,critical
1664,red,31,blue,"Thanks very much, I hope my submission is useful to your research!",Sound A,Graduated College,pleasant,291178,1756124817887,1756124526709,male,English,disjunctive,65dc99d0191a135ab835bf69,68ac556a170fbcd6c17b183a,68ac4ae76781c84da1367d55,Sound A,12650,1,comprehension
1664,red,31,blue,"Thanks very much, I hope my submission is useful to your research!",Sound A,Graduated College,pleasant,291178,1756124817887,1756124526709,male,English,disjunctive,65dc99d0191a135ab835bf69,68ac556a170fbcd6c17b183a,68ac4ae76781c84da1367d55,Sound A,14593,2,comprehension
1664,red,31,blue,"Thanks very much, I hope my submission is useful to your research!",Sound A,Graduated College,pleasant,291178,1756124817887,1756124526709,male,English,disjunctive,65dc99d0191a135ab835bf69,68ac556a170fbcd6c17b183a,68ac4ae76781c84da1367d55,Sound B,5312,3,comprehension
1664,red,31,blue,"Thanks very much, I hope my submission is useful to your research!",Sound B,Graduated College,pleasant,291178,1756124817887,1756124526709,male,English,disjunctive,65dc99d0191a135ab835bf69,68ac556a170fbcd6c17b183a,68ac4ae76781c84da1367d55,Sound B,12079,4,comprehension
1664,red,31,blue,"Thanks very much, I hope my submission is useful to your research!",Blue marble,Graduated College,pleasant,291178,1756124817887,1756124526709,male,English,disjunctive,65dc99d0191a135ab835bf69,68ac556a170fbcd6c17b183a,68ac4ae76781c84da1367d55,Blue marble,8178,1,comprehension-2
1664,red,31,blue,"Thanks very much, I hope my submission is useful to your research!",Everyone,Graduated College,pleasant,291178,1756124817887,1756124526709,male,English,disjunctive,65dc99d0191a135ab835bf69,68ac556a170fbcd6c17b183a,68ac4ae76781c84da1367d55,Everyone,9147,1,comprehension-3
1664,red,31,blue,"Thanks very much, I hope my submission is useful to your research!",FALSE,Graduated College,pleasant,291178,1756124817887,1756124526709,male,English,disjunctive,65dc99d0191a135ab835bf69,68ac556a170fbcd6c17b183a,68ac4ae76781c84da1367d55,FALSE,5366,2,comprehension-3
1664,red,31,blue,"Thanks very much, I hope my submission is useful to your research!",NA,Graduated College,pleasant,291178,1756124817887,1756124526709,male,English,disjunctive,65dc99d0191a135ab835bf69,68ac556a170fbcd6c17b183a,68ac4ae76781c84da1367d55,1,30003,1,critical
1679,blue,45,blue,,Sound A,Graduated College,pleasant,334343,1756124861164,1756124526821,female,english,conjunctive,59fc8aba087f2e0001ead671,68ac5569d629bf08a04760d9,68ac4ae76781c84da1367d55,Sound A,23454,1,comprehension
1679,blue,45,blue,,Sound B,Graduated College,pleasant,334343,1756124861164,1756124526821,female,english,conjunctive,59fc8aba087f2e0001ead671,68ac5569d629bf08a04760d9,68ac4ae76781c84da1367d55,Sound B,3074,2,comprehension
1679,blue,45,blue,,Sound B,Graduated College,pleasant,334343,1756124861164,1756124526821,female,english,conjunctive,59fc8aba087f2e0001ead671,68ac5569d629bf08a04760d9,68ac4ae76781c84da1367d55,Sound B,4751,3,comprehension
1679,blue,45,blue,,Sound B,Graduated College,pleasant,334343,1756124861164,1756124526821,female,english,conjunctive,59fc8aba087f2e0001ead671,68ac5569d629bf08a04760d9,68ac4ae76781c84da1367d55,Sound B,2947,4,comprehension
1679,blue,45,blue,,Blue marble,Graduated College,pleasant,334343,1756124861164,1756124526821,female,english,conjunctive,59fc8aba087f2e0001ead671,68ac5569d629bf08a04760d9,68ac4ae76781c84da1367d55,Blue marble,11177,1,comprehension-2
1679,blue,45,blue,,Everyone,Graduated College,pleasant,334343,1756124861164,1756124526821,female,english,conjunctive,59fc8aba087f2e0001ead671,68ac5569d629bf08a04760d9,68ac4ae76781c84da1367d55,Everyone,5732,1,comprehension-3
1679,blue,45,blue,,FALSE,Graduated College,pleasant,334343,1756124861164,1756124526821,female,english,conjunctive,59fc8aba087f2e0001ead671,68ac5569d629bf08a04760d9,68ac4ae76781c84da1367d55,FALSE,5916,2,comprehension-3
1679,blue,45,blue,,NA,Graduated College,pleasant,334343,1756124861164,1756124526821,female,english,conjunctive,59fc8aba087f2e0001ead671,68ac5569d629bf08a04760d9,68ac4ae76781c84da1367d55,4,58962,1,critical
1668,red,25,blue,,Sound A,Graduated High-school,pleasant,296713,1756124836480,1756124539767,male,english,disjunctive,646a16e2aae07a0225cdb635,68ac556614983310aaa58936,68ac4ae76781c84da1367d55,Sound A,19484,1,comprehension
1668,red,25,blue,,Sound A,Graduated High-school,pleasant,296713,1756124836480,1756124539767,male,english,disjunctive,646a16e2aae07a0225cdb635,68ac556614983310aaa58936,68ac4ae76781c84da1367d55,Sound A,3566,2,comprehension
1668,red,25,blue,,Sound A,Graduated High-school,pleasant,296713,1756124836480,1756124539767,male,english,disjunctive,646a16e2aae07a0225cdb635,68ac556614983310aaa58936,68ac4ae76781c84da1367d55,Sound A,3367,3,comprehension
1668,red,25,blue,,Sound B,Graduated High-school,pleasant,296713,1756124836480,1756124539767,male,english,disjunctive,646a16e2aae07a0225cdb635,68ac556614983310aaa58936,68ac4ae76781c84da1367d55,Sound B,3199,4,comprehension
1668,red,25,blue,,Blue marble,Graduated High-school,pleasant,296713,1756124836480,1756124539767,male,english,disjunctive,646a16e2aae07a0225cdb635,68ac556614983310aaa58936,68ac4ae76781c84da1367d55,Blue marble,9517,1,comprehension-2
1668,red,25,blue,,Everyone,Graduated High-school,pleasant,296713,1756124836480,1756124539767,male,english,disjunctive,646a16e2aae07a0225cdb635,68ac556614983310aaa58936,68ac4ae76781c84da1367d55,Everyone,12531,1,comprehension-3
1668,red,25,blue,,FALSE,Graduated High-school,pleasant,296713,1756124836480,1756124539767,male,english,disjunctive,646a16e2aae07a0225cdb635,68ac556614983310aaa58936,68ac4ae76781c84da1367d55,FALSE,4833,2,comprehension-3
1668,red,25,blue,,NA,Graduated High-school,pleasant,296713,1756124836480,1756124539767,male,english,disjunctive,646a16e2aae07a0225cdb635,68ac556614983310aaa58936,68ac4ae76781c84da1367d55,4,95264,1,critical
1673,blue,46,red,No,Sound A,Graduated College,neutral,207749,1756124842346,1756124634597,female,English,disjunctive,555a3e90fdf99b10ecc8713a,68ac55cf641d5840e4f29743,68ac4ae76781c84da1367d55,Sound A,10751,1,comprehension
1673,blue,46,red,No,Sound A,Graduated College,neutral,207749,1756124842346,1756124634597,female,English,disjunctive,555a3e90fdf99b10ecc8713a,68ac55cf641d5840e4f29743,68ac4ae76781c84da1367d55,Sound A,2882,2,comprehension
1673,blue,46,red,No,Sound A,Graduated College,neutral,207749,1756124842346,1756124634597,female,English,disjunctive,555a3e90fdf99b10ecc8713a,68ac55cf641d5840e4f29743,68ac4ae76781c84da1367d55,Sound A,3397,3,comprehension
1673,blue,46,red,No,Sound B,Graduated College,neutral,207749,1756124842346,1756124634597,female,English,disjunctive,555a3e90fdf99b10ecc8713a,68ac55cf641d5840e4f29743,68ac4ae76781c84da1367d55,Sound B,1802,4,comprehension
1673,blue,46,red,No,Red marble,Graduated College,neutral,207749,1756124842346,1756124634597,female,English,disjunctive,555a3e90fdf99b10ecc8713a,68ac55cf641d5840e4f29743,68ac4ae76781c84da1367d55,Red marble,7442,1,comprehension-2
1673,blue,46,red,No,Everyone,Graduated College,neutral,207749,1756124842346,1756124634597,female,English,disjunctive,555a3e90fdf99b10ecc8713a,68ac55cf641d5840e4f29743,68ac4ae76781c84da1367d55,Everyone,5143,1,comprehension-3
1673,blue,46,red,No,FALSE,Graduated College,neutral,207749,1756124842346,1756124634597,female,English,disjunctive,555a3e90fdf99b10ecc8713a,68ac55cf641d5840e4f29743,68ac4ae76781c84da1367d55,FALSE,3832,2,comprehension-3
1673,blue,46,red,No,NA,Graduated College,neutral,207749,1756124842346,1756124634597,female,English,disjunctive,555a3e90fdf99b10ecc8713a,68ac55cf641d5840e4f29743,68ac4ae76781c84da1367d55,4,47405,1,critical
1684,red,37,blue,,Sound A,Higher degree,unpleasant,353046,1756124884092,1756124531046,male,English,disjunctive,60b9f1fe58782eeab6372f1c,68ac556a5941f07bcb6e169c,68ac4ae76781c84da1367d55,Sound A,65103,1,comprehension
1684,red,37,blue,,Sound A,Higher degree,unpleasant,353046,1756124884092,1756124531046,male,English,disjunctive,60b9f1fe58782eeab6372f1c,68ac556a5941f07bcb6e169c,68ac4ae76781c84da1367d55,Sound A,21811,2,comprehension
1684,red,37,blue,,Sound A,Higher degree,unpleasant,353046,1756124884092,1756124531046,male,English,disjunctive,60b9f1fe58782eeab6372f1c,68ac556a5941f07bcb6e169c,68ac4ae76781c84da1367d55,Sound A,7323,3,comprehension
1684,red,37,blue,,Sound B,Higher degree,unpleasant,353046,1756124884092,1756124531046,male,English,disjunctive,60b9f1fe58782eeab6372f1c,68ac556a5941f07bcb6e169c,68ac4ae76781c84da1367d55,Sound B,2449,4,comprehension
1684,red,37,blue,,Blue marble,Higher degree,unpleasant,353046,1756124884092,1756124531046,male,English,disjunctive,60b9f1fe58782eeab6372f1c,68ac556a5941f07bcb6e169c,68ac4ae76781c84da1367d55,Blue marble,11339,1,comprehension-2
1684,red,37,blue,,Everyone,Higher degree,unpleasant,353046,1756124884092,1756124531046,male,English,disjunctive,60b9f1fe58782eeab6372f1c,68ac556a5941f07bcb6e169c,68ac4ae76781c84da1367d55,Everyone,68274,1,comprehension-3
1684,red,37,blue,,FALSE,Higher degree,unpleasant,353046,1756124884092,1756124531046,male,English,disjunctive,60b9f1fe58782eeab6372f1c,68ac556a5941f07bcb6e169c,68ac4ae76781c84da1367d55,FALSE,4715,2,comprehension-3
1684,red,37,blue,,NA,Higher degree,unpleasant,353046,1756124884092,1756124531046,male,English,disjunctive,60b9f1fe58782eeab6372f1c,68ac556a5941f07bcb6e169c,68ac4ae76781c84da1367d55,4,27943,1,critical
1699,blue,44,red,,Sound A,Graduated College,unpleasant,268396,1756124936038,1756124667642,male,English,disjunctive,5d316c4442c2170018e10574,68ac55cda9fa6994b695dab9,68ac4ae76781c84da1367d55,Sound A,16304,1,comprehension
1699,blue,44,red,,Sound A,Graduated College,unpleasant,268396,1756124936038,1756124667642,male,English,disjunctive,5d316c4442c2170018e10574,68ac55cda9fa6994b695dab9,68ac4ae76781c84da1367d55,Sound A,4040,2,comprehension
1699,blue,44,red,,Sound A,Graduated College,unpleasant,268396,1756124936038,1756124667642,male,English,disjunctive,5d316c4442c2170018e10574,68ac55cda9fa6994b695dab9,68ac4ae76781c84da1367d55,Sound A,1529,3,comprehension
1699,blue,44,red,,Sound B,Graduated College,unpleasant,268396,1756124936038,1756124667642,male,English,disjunctive,5d316c4442c2170018e10574,68ac55cda9fa6994b695dab9,68ac4ae76781c84da1367d55,Sound B,1413,4,comprehension
1699,blue,44,red,,Red marble,Graduated College,unpleasant,268396,1756124936038,1756124667642,male,English,disjunctive,5d316c4442c2170018e10574,68ac55cda9fa6994b695dab9,68ac4ae76781c84da1367d55,Red marble,5735,1,comprehension-2
1699,blue,44,red,,Everyone,Graduated College,unpleasant,268396,1756124936038,1756124667642,male,English,disjunctive,5d316c4442c2170018e10574,68ac55cda9fa6994b695dab9,68ac4ae76781c84da1367d55,Everyone,2860,1,comprehension-3
1699,blue,44,red,,FALSE,Graduated College,unpleasant,268396,1756124936038,1756124667642,male,English,disjunctive,5d316c4442c2170018e10574,68ac55cda9fa6994b695dab9,68ac4ae76781c84da1367d55,FALSE,2473,2,comprehension-3
1699,blue,44,red,,NA,Graduated College,unpleasant,268396,1756124936038,1756124667642,male,English,disjunctive,5d316c4442c2170018e10574,68ac55cda9fa6994b695dab9,68ac4ae76781c84da1367d55,7,43984,1,critical
1705,blue,35,blue,None,Sound A,Graduated College,neutral,240401,1756124958947,1756124718546,male,English,disjunctive,5d24e4ba5018e900158d31f1,68ac5628da70501d3bb234be,68ac4ae76781c84da1367d55,Sound A,7497,1,comprehension
1705,blue,35,blue,None,Sound A,Graduated College,neutral,240401,1756124958947,1756124718546,male,English,disjunctive,5d24e4ba5018e900158d31f1,68ac5628da70501d3bb234be,68ac4ae76781c84da1367d55,Sound A,5252,2,comprehension
1705,blue,35,blue,None,Sound A,Graduated College,neutral,240401,1756124958947,1756124718546,male,English,disjunctive,5d24e4ba5018e900158d31f1,68ac5628da70501d3bb234be,68ac4ae76781c84da1367d55,Sound A,836,3,comprehension
1705,blue,35,blue,None,Sound B,Graduated College,neutral,240401,1756124958947,1756124718546,male,English,disjunctive,5d24e4ba5018e900158d31f1,68ac5628da70501d3bb234be,68ac4ae76781c84da1367d55,Sound B,1008,4,comprehension
1705,blue,35,blue,None,Blue marble,Graduated College,neutral,240401,1756124958947,1756124718546,male,English,disjunctive,5d24e4ba5018e900158d31f1,68ac5628da70501d3bb234be,68ac4ae76781c84da1367d55,Blue marble,9388,1,comprehension-2
1705,blue,35,blue,None,Everyone,Graduated College,neutral,240401,1756124958947,1756124718546,male,English,disjunctive,5d24e4ba5018e900158d31f1,68ac5628da70501d3bb234be,68ac4ae76781c84da1367d55,Everyone,2720,1,comprehension-3
1705,blue,35,blue,None,FALSE,Graduated College,neutral,240401,1756124958947,1756124718546,male,English,disjunctive,5d24e4ba5018e900158d31f1,68ac5628da70501d3bb234be,68ac4ae76781c84da1367d55,FALSE,2735,2,comprehension-3
1705,blue,35,blue,None,NA,Graduated College,neutral,240401,1756124958947,1756124718546,male,English,disjunctive,5d24e4ba5018e900158d31f1,68ac5628da70501d3bb234be,68ac4ae76781c84da1367d55,1,62642,1,critical
1709,red,32,red,,Sound A,Graduated High-school,pleasant,185326,1756124972091,1756124786765,female,English,conjunctive,668ed2293ba05a66f83b6a31,68ac5658e188e2f44983dedd,68ac4ae76781c84da1367d55,Sound A,8282,1,comprehension
1709,red,32,red,,Sound B,Graduated High-school,pleasant,185326,1756124972091,1756124786765,female,English,conjunctive,668ed2293ba05a66f83b6a31,68ac5658e188e2f44983dedd,68ac4ae76781c84da1367d55,Sound B,2222,2,comprehension
1709,red,32,red,,Sound B,Graduated High-school,pleasant,185326,1756124972091,1756124786765,female,English,conjunctive,668ed2293ba05a66f83b6a31,68ac5658e188e2f44983dedd,68ac4ae76781c84da1367d55,Sound B,1625,3,comprehension
1709,red,32,red,,Sound B,Graduated High-school,pleasant,185326,1756124972091,1756124786765,female,English,conjunctive,668ed2293ba05a66f83b6a31,68ac5658e188e2f44983dedd,68ac4ae76781c84da1367d55,Sound B,1235,4,comprehension
1709,red,32,red,,Red marble,Graduated High-school,pleasant,185326,1756124972091,1756124786765,female,English,conjunctive,668ed2293ba05a66f83b6a31,68ac5658e188e2f44983dedd,68ac4ae76781c84da1367d55,Red marble,8959,1,comprehension-2
1709,red,32,red,,Everyone,Graduated High-school,pleasant,185326,1756124972091,1756124786765,female,English,conjunctive,668ed2293ba05a66f83b6a31,68ac5658e188e2f44983dedd,68ac4ae76781c84da1367d55,Everyone,4344,1,comprehension-3
1709,red,32,red,,FALSE,Graduated High-school,pleasant,185326,1756124972091,1756124786765,female,English,conjunctive,668ed2293ba05a66f83b6a31,68ac5658e188e2f44983dedd,68ac4ae76781c84da1367d55,FALSE,3898,2,comprehension-3
1709,red,32,red,,NA,Graduated High-school,pleasant,185326,1756124972091,1756124786765,female,English,conjunctive,668ed2293ba05a66f83b6a31,68ac5658e188e2f44983dedd,68ac4ae76781c84da1367d55,7,41281,1,critical
1676,red,72,blue,,Sound A,Graduated College,unpleasant,287990,1756124848213,1756124560223,female,English,conjunctive,597519f8262c480001bbaf8b,68ac55883bee37b24ea965e3,68ac4ae76781c84da1367d55,Sound A,25606,1,comprehension
1676,red,72,blue,,Sound B,Graduated College,unpleasant,287990,1756124848213,1756124560223,female,English,conjunctive,597519f8262c480001bbaf8b,68ac55883bee37b24ea965e3,68ac4ae76781c84da1367d55,Sound B,9490,2,comprehension
1676,red,72,blue,,Sound B,Graduated College,unpleasant,287990,1756124848213,1756124560223,female,English,conjunctive,597519f8262c480001bbaf8b,68ac55883bee37b24ea965e3,68ac4ae76781c84da1367d55,Sound B,5162,3,comprehension
1676,red,72,blue,,Sound B,Graduated College,unpleasant,287990,1756124848213,1756124560223,female,English,conjunctive,597519f8262c480001bbaf8b,68ac55883bee37b24ea965e3,68ac4ae76781c84da1367d55,Sound B,7893,4,comprehension
1676,red,72,blue,,Blue marble,Graduated College,unpleasant,287990,1756124848213,1756124560223,female,English,conjunctive,597519f8262c480001bbaf8b,68ac55883bee37b24ea965e3,68ac4ae76781c84da1367d55,Blue marble,8978,1,comprehension-2
1676,red,72,blue,,Everyone,Graduated College,unpleasant,287990,1756124848213,1756124560223,female,English,conjunctive,597519f8262c480001bbaf8b,68ac55883bee37b24ea965e3,68ac4ae76781c84da1367d55,Everyone,8153,1,comprehension-3
1676,red,72,blue,,FALSE,Graduated College,unpleasant,287990,1756124848213,1756124560223,female,English,conjunctive,597519f8262c480001bbaf8b,68ac55883bee37b24ea965e3,68ac4ae76781c84da1367d55,FALSE,5157,2,comprehension-3
1676,red,72,blue,,NA,Graduated College,unpleasant,287990,1756124848213,1756124560223,female,English,conjunctive,597519f8262c480001bbaf8b,68ac55883bee37b24ea965e3,68ac4ae76781c84da1367d55,6,56114,1,critical
1687,red,49,blue,,Sound A,Higher degree,unpleasant,373526,1756124889177,1756124515651,female,English,disjunctive,5b99663d4cefb60001e7a214,68ac555b6fa87b814317bf17,68ac4ae76781c84da1367d55,Sound A,7809,1,comprehension
1687,red,49,blue,,Sound A,Higher degree,unpleasant,373526,1756124889177,1756124515651,female,English,disjunctive,5b99663d4cefb60001e7a214,68ac555b6fa87b814317bf17,68ac4ae76781c84da1367d55,Sound B,6719,2,comprehension
1687,red,49,blue,,Sound A,Higher degree,unpleasant,373526,1756124889177,1756124515651,female,English,disjunctive,5b99663d4cefb60001e7a214,68ac555b6fa87b814317bf17,68ac4ae76781c84da1367d55,Sound B,3160,3,comprehension
1687,red,49,blue,,Sound B,Higher degree,unpleasant,373526,1756124889177,1756124515651,female,English,disjunctive,5b99663d4cefb60001e7a214,68ac555b6fa87b814317bf17,68ac4ae76781c84da1367d55,Sound B,3344,4,comprehension
1687,red,49,blue,,Blue marble,Higher degree,unpleasant,373526,1756124889177,1756124515651,female,English,disjunctive,5b99663d4cefb60001e7a214,68ac555b6fa87b814317bf17,68ac4ae76781c84da1367d55,Blue marble,4016,1,comprehension-2
1687,red,49,blue,,Everyone,Higher degree,unpleasant,373526,1756124889177,1756124515651,female,English,disjunctive,5b99663d4cefb60001e7a214,68ac555b6fa87b814317bf17,68ac4ae76781c84da1367d55,Everyone,4664,1,comprehension-3
1687,red,49,blue,,FALSE,Higher degree,unpleasant,373526,1756124889177,1756124515651,female,English,disjunctive,5b99663d4cefb60001e7a214,68ac555b6fa87b814317bf17,68ac4ae76781c84da1367d55,FALSE,4335,2,comprehension-3
1687,red,49,blue,,NA,Higher degree,unpleasant,373526,1756124889177,1756124515651,female,English,disjunctive,5b99663d4cefb60001e7a214,68ac555b6fa87b814317bf17,68ac4ae76781c84da1367d55,2,81072,1,critical
1682,red,49,red,,Sound A,Graduated High-school,neutral,282177,1756124870823,1756124588646,male,english,disjunctive,5d55d43e25dd4c00174122dc,68ac55aa40c203d31319d136,68ac4ae76781c84da1367d55,Sound A,1642,1,comprehension
1682,red,49,red,,Sound A,Graduated High-school,neutral,282177,1756124870823,1756124588646,male,english,disjunctive,5d55d43e25dd4c00174122dc,68ac55aa40c203d31319d136,68ac4ae76781c84da1367d55,Sound B,1502,2,comprehension
1682,red,49,red,,Sound A,Graduated High-school,neutral,282177,1756124870823,1756124588646,male,english,disjunctive,5d55d43e25dd4c00174122dc,68ac55aa40c203d31319d136,68ac4ae76781c84da1367d55,Sound A,1157,3,comprehension
1682,red,49,red,,Sound B,Graduated High-school,neutral,282177,1756124870823,1756124588646,male,english,disjunctive,5d55d43e25dd4c00174122dc,68ac55aa40c203d31319d136,68ac4ae76781c84da1367d55,Sound A,4494,4,comprehension
1682,red,49,red,,Red marble,Graduated High-school,neutral,282177,1756124870823,1756124588646,male,english,disjunctive,5d55d43e25dd4c00174122dc,68ac55aa40c203d31319d136,68ac4ae76781c84da1367d55,Red marble,7834,1,comprehension-2
1682,red,49,red,,Everyone,Graduated High-school,neutral,282177,1756124870823,1756124588646,male,english,disjunctive,5d55d43e25dd4c00174122dc,68ac55aa40c203d31319d136,68ac4ae76781c84da1367d55,Everyone,6878,1,comprehension-3
1682,red,49,red,,FALSE,Graduated High-school,neutral,282177,1756124870823,1756124588646,male,english,disjunctive,5d55d43e25dd4c00174122dc,68ac55aa40c203d31319d136,68ac4ae76781c84da1367d55,FALSE,4593,2,comprehension-3
1682,red,49,red,,NA,Graduated High-school,neutral,282177,1756124870823,1756124588646,male,english,disjunctive,5d55d43e25dd4c00174122dc,68ac55aa40c203d31319d136,68ac4ae76781c84da1367d55,4,47568,1,critical
1704,blue,67,blue,was great thanks,Sound A,Graduated High-school,neutral,296084,1756124955893,1756124659809,male,english,conjunctive,5c8ee6c36ca70b0001fe979d,68ac55ef9bbe6a81abdd1018,68ac4ae76781c84da1367d55,Sound A,10764,1,comprehension
1704,blue,67,blue,was great thanks,Sound B,Graduated High-school,neutral,296084,1756124955893,1756124659809,male,english,conjunctive,5c8ee6c36ca70b0001fe979d,68ac55ef9bbe6a81abdd1018,68ac4ae76781c84da1367d55,Sound B,3067,2,comprehension
1704,blue,67,blue,was great thanks,Sound B,Graduated High-school,neutral,296084,1756124955893,1756124659809,male,english,conjunctive,5c8ee6c36ca70b0001fe979d,68ac55ef9bbe6a81abdd1018,68ac4ae76781c84da1367d55,Sound B,1512,3,comprehension
1704,blue,67,blue,was great thanks,Sound B,Graduated High-school,neutral,296084,1756124955893,1756124659809,male,english,conjunctive,5c8ee6c36ca70b0001fe979d,68ac55ef9bbe6a81abdd1018,68ac4ae76781c84da1367d55,Sound B,401,4,comprehension
1704,blue,67,blue,was great thanks,Blue marble,Graduated High-school,neutral,296084,1756124955893,1756124659809,male,english,conjunctive,5c8ee6c36ca70b0001fe979d,68ac55ef9bbe6a81abdd1018,68ac4ae76781c84da1367d55,Blue marble,9942,1,comprehension-2
1704,blue,67,blue,was great thanks,Everyone,Graduated High-school,neutral,296084,1756124955893,1756124659809,male,english,conjunctive,5c8ee6c36ca70b0001fe979d,68ac55ef9bbe6a81abdd1018,68ac4ae76781c84da1367d55,Everyone,6008,1,comprehension-3
1704,blue,67,blue,was great thanks,FALSE,Graduated High-school,neutral,296084,1756124955893,1756124659809,male,english,conjunctive,5c8ee6c36ca70b0001fe979d,68ac55ef9bbe6a81abdd1018,68ac4ae76781c84da1367d55,FALSE,3789,2,comprehension-3
1704,blue,67,blue,was great thanks,NA,Graduated High-school,neutral,296084,1756124955893,1756124659809,male,english,conjunctive,5c8ee6c36ca70b0001fe979d,68ac55ef9bbe6a81abdd1018,68ac4ae76781c84da1367d55,5,48493,1,critical
1695,red,65,blue,This is obviously a probability experiment but with the interesting addition of the religions.,Sound A,Graduated High-school,pleasant,394094,1756124931162,1756124537068,male,English,conjunctive,67d5e3d6a8a6bc7b6665a542,68ac556a73e396b370f93b3a,68ac4ae76781c84da1367d55,Sound A,24392,1,comprehension
1695,red,65,blue,This is obviously a probability experiment but with the interesting addition of the religions.,Sound B,Graduated High-school,pleasant,394094,1756124931162,1756124537068,male,English,conjunctive,67d5e3d6a8a6bc7b6665a542,68ac556a73e396b370f93b3a,68ac4ae76781c84da1367d55,Sound B,3216,2,comprehension
1695,red,65,blue,This is obviously a probability experiment but with the interesting addition of the religions.,Sound B,Graduated High-school,pleasant,394094,1756124931162,1756124537068,male,English,conjunctive,67d5e3d6a8a6bc7b6665a542,68ac556a73e396b370f93b3a,68ac4ae76781c84da1367d55,Sound B,3336,3,comprehension
1695,red,65,blue,This is obviously a probability experiment but with the interesting addition of the religions.,Sound B,Graduated High-school,pleasant,394094,1756124931162,1756124537068,male,English,conjunctive,67d5e3d6a8a6bc7b6665a542,68ac556a73e396b370f93b3a,68ac4ae76781c84da1367d55,Sound B,2328,4,comprehension
1695,red,65,blue,This is obviously a probability experiment but with the interesting addition of the religions.,Blue marble,Graduated High-school,pleasant,394094,1756124931162,1756124537068,male,English,conjunctive,67d5e3d6a8a6bc7b6665a542,68ac556a73e396b370f93b3a,68ac4ae76781c84da1367d55,Blue marble,15344,1,comprehension-2
1695,red,65,blue,This is obviously a probability experiment but with the interesting addition of the religions.,Everyone,Graduated High-school,pleasant,394094,1756124931162,1756124537068,male,English,conjunctive,67d5e3d6a8a6bc7b6665a542,68ac556a73e396b370f93b3a,68ac4ae76781c84da1367d55,Everyone,4248,1,comprehension-3
1695,red,65,blue,This is obviously a probability experiment but with the interesting addition of the religions.,FALSE,Graduated High-school,pleasant,394094,1756124931162,1756124537068,male,English,conjunctive,67d5e3d6a8a6bc7b6665a542,68ac556a73e396b370f93b3a,68ac4ae76781c84da1367d55,FALSE,3752,2,comprehension-3
1695,red,65,blue,This is obviously a probability experiment but with the interesting addition of the religions.,NA,Graduated High-school,pleasant,394094,1756124931162,1756124537068,male,English,conjunctive,67d5e3d6a8a6bc7b6665a542,68ac556a73e396b370f93b3a,68ac4ae76781c84da1367d55,7,68560,1,critical
1703,blue,51,red,,Sound A,Graduated College,unpleasant,403497,1756124950889,1756124547392,female,English,conjunctive,5838861383a1cc0001f3f258,68ac557ca3c26fc3fbd0cc7f,68ac4ae76781c84da1367d55,Sound A,17197,1,comprehension
1703,blue,51,red,,Sound B,Graduated College,unpleasant,403497,1756124950889,1756124547392,female,English,conjunctive,5838861383a1cc0001f3f258,68ac557ca3c26fc3fbd0cc7f,68ac4ae76781c84da1367d55,Sound B,2768,2,comprehension
1703,blue,51,red,,Sound B,Graduated College,unpleasant,403497,1756124950889,1756124547392,female,English,conjunctive,5838861383a1cc0001f3f258,68ac557ca3c26fc3fbd0cc7f,68ac4ae76781c84da1367d55,Sound B,2445,3,comprehension
1703,blue,51,red,,Sound B,Graduated College,unpleasant,403497,1756124950889,1756124547392,female,English,conjunctive,5838861383a1cc0001f3f258,68ac557ca3c26fc3fbd0cc7f,68ac4ae76781c84da1367d55,Sound B,1855,4,comprehension
1703,blue,51,red,,Red marble,Graduated College,unpleasant,403497,1756124950889,1756124547392,female,English,conjunctive,5838861383a1cc0001f3f258,68ac557ca3c26fc3fbd0cc7f,68ac4ae76781c84da1367d55,Red marble,39332,1,comprehension-2
1703,blue,51,red,,Everyone,Graduated College,unpleasant,403497,1756124950889,1756124547392,female,English,conjunctive,5838861383a1cc0001f3f258,68ac557ca3c26fc3fbd0cc7f,68ac4ae76781c84da1367d55,Everyone,4725,1,comprehension-3
1703,blue,51,red,,FALSE,Graduated College,unpleasant,403497,1756124950889,1756124547392,female,English,conjunctive,5838861383a1cc0001f3f258,68ac557ca3c26fc3fbd0cc7f,68ac4ae76781c84da1367d55,FALSE,5220,2,comprehension-3
1703,blue,51,red,,NA,Graduated College,unpleasant,403497,1756124950889,1756124547392,female,English,conjunctive,5838861383a1cc0001f3f258,68ac557ca3c26fc3fbd0cc7f,68ac4ae76781c84da1367d55,2,96567,1,critical
1712,red,43,blue,,Sound A,Graduated College,pleasant,211438,1756124988011,1756124776573,male,English,disjunctive,6016f0e16f7aec8af4152aa4,68ac5661eaa46d92cb351d70,68ac4ae76781c84da1367d55,Sound A,12904,1,comprehension
1712,red,43,blue,,Sound A,Graduated College,pleasant,211438,1756124988011,1756124776573,male,English,disjunctive,6016f0e16f7aec8af4152aa4,68ac5661eaa46d92cb351d70,68ac4ae76781c84da1367d55,Sound A,2254,2,comprehension
1712,red,43,blue,,Sound A,Graduated College,pleasant,211438,1756124988011,1756124776573,male,English,disjunctive,6016f0e16f7aec8af4152aa4,68ac5661eaa46d92cb351d70,68ac4ae76781c84da1367d55,Sound A,1656,3,comprehension
1712,red,43,blue,,Sound B,Graduated College,pleasant,211438,1756124988011,1756124776573,male,English,disjunctive,6016f0e16f7aec8af4152aa4,68ac5661eaa46d92cb351d70,68ac4ae76781c84da1367d55,Sound B,1522,4,comprehension
1712,red,43,blue,,Blue marble,Graduated College,pleasant,211438,1756124988011,1756124776573,male,English,disjunctive,6016f0e16f7aec8af4152aa4,68ac5661eaa46d92cb351d70,68ac4ae76781c84da1367d55,Blue marble,16638,1,comprehension-2
1712,red,43,blue,,Everyone,Graduated College,pleasant,211438,1756124988011,1756124776573,male,English,disjunctive,6016f0e16f7aec8af4152aa4,68ac5661eaa46d92cb351d70,68ac4ae76781c84da1367d55,Everyone,5435,1,comprehension-3
