submission_id,actual_cause,age,comments,correctResponse,education,effect_valence,experiment_duration,experiment_end_time,experiment_start_time,gender,languages,mechanism,prolific_pid,prolific_session_id,prolific_study_id,response,responseTime,trialNr,trialType
3494,red,25,,Sound A,Graduated College,pleasant,220133,1716737387929,1716737167796,male,Engish,disjunctive,610073c79fa52e110665ff7a,6653544578d4cf4381f2ccaf,665353d08d37546e94979ca6,Sound A,11675,1,comprehension
3494,red,25,,Sound A,Graduated College,pleasant,220133,1716737387929,1716737167796,male,Engish,disjunctive,610073c79fa52e110665ff7a,6653544578d4cf4381f2ccaf,665353d08d37546e94979ca6,Sound A,1292,2,comprehension
3494,red,25,,Sound A,Graduated College,pleasant,220133,1716737387929,1716737167796,male,Engish,disjunctive,610073c79fa52e110665ff7a,6653544578d4cf4381f2ccaf,665353d08d37546e94979ca6,Sound A,1384,3,comprehension
3494,red,25,,Sound B,Graduated College,pleasant,220133,1716737387929,1716737167796,male,Engish,disjunctive,610073c79fa52e110665ff7a,6653544578d4cf4381f2ccaf,665353d08d37546e94979ca6,Sound B,1231,4,comprehension
3494,red,25,,Everyone,Graduated College,pleasant,220133,1716737387929,1716737167796,male,Engish,disjunctive,610073c79fa52e110665ff7a,6653544578d4cf4381f2ccaf,665353d08d37546e94979ca6,Everyone,3992,1,comprehension-2
3494,red,25,,FALSE,Graduated College,pleasant,220133,1716737387929,1716737167796,male,Engish,disjunctive,610073c79fa52e110665ff7a,6653544578d4cf4381f2ccaf,665353d08d37546e94979ca6,FALSE,2416,2,comprehension-2
3494,red,25,,NA,Graduated College,pleasant,220133,1716737387929,1716737167796,male,Engish,disjunctive,610073c79fa52e110665ff7a,6653544578d4cf4381f2ccaf,665353d08d37546e94979ca6,3,73110,1,critical
3616,red,,,Sound A,,neutral,104562,1716899733781,1716899629219,,,disjunctive,5bff1eeebe5e730001efef32,6655cf276c6e8f3c8a2e61d6,665353d08d37546e94979ca6,Sound A,2232,1,comprehension
3616,red,,,Sound A,,neutral,104562,1716899733781,1716899629219,,,disjunctive,5bff1eeebe5e730001efef32,6655cf276c6e8f3c8a2e61d6,665353d08d37546e94979ca6,Sound A,22125,2,comprehension
3616,red,,,Sound A,,neutral,104562,1716899733781,1716899629219,,,disjunctive,5bff1eeebe5e730001efef32,6655cf276c6e8f3c8a2e61d6,665353d08d37546e94979ca6,Sound A,10069,3,comprehension
3616,red,,,Sound B,,neutral,104562,1716899733781,1716899629219,,,disjunctive,5bff1eeebe5e730001efef32,6655cf276c6e8f3c8a2e61d6,665353d08d37546e94979ca6,Sound B,2673,4,comprehension
3616,red,,,Everyone,,neutral,104562,1716899733781,1716899629219,,,disjunctive,5bff1eeebe5e730001efef32,6655cf276c6e8f3c8a2e61d6,665353d08d37546e94979ca6,Everyone,5843,1,comprehension-2
3616,red,,,FALSE,,neutral,104562,1716899733781,1716899629219,,,disjunctive,5bff1eeebe5e730001efef32,6655cf276c6e8f3c8a2e61d6,665353d08d37546e94979ca6,FALSE,3109,2,comprehension-2
3616,red,,,NA,,neutral,104562,1716899733781,1716899629219,,,disjunctive,5bff1eeebe5e730001efef32,6655cf276c6e8f3c8a2e61d6,665353d08d37546e94979ca6,1,29278,1,critical
3495,blue,36,,Sound A,Graduated College,unpleasant,227991,1716737443423,1716737215432,female,English,disjunctive,6547a68d2a815c91f2465658,665354b2a5b00d196b367033,665353d08d37546e94979ca6,Sound A,12766,1,comprehension
3495,blue,36,,Sound A,Graduated College,unpleasant,227991,1716737443423,1716737215432,female,English,disjunctive,6547a68d2a815c91f2465658,665354b2a5b00d196b367033,665353d08d37546e94979ca6,Sound A,5008,2,comprehension
3495,blue,36,,Sound A,Graduated College,unpleasant,227991,1716737443423,1716737215432,female,English,disjunctive,6547a68d2a815c91f2465658,665354b2a5b00d196b367033,665353d08d37546e94979ca6,Sound A,3129,3,comprehension
3495,blue,36,,Sound B,Graduated College,unpleasant,227991,1716737443423,1716737215432,female,English,disjunctive,6547a68d2a815c91f2465658,665354b2a5b00d196b367033,665353d08d37546e94979ca6,Sound B,1744,4,comprehension
3495,blue,36,,Everyone,Graduated College,unpleasant,227991,1716737443423,1716737215432,female,English,disjunctive,6547a68d2a815c91f2465658,665354b2a5b00d196b367033,665353d08d37546e94979ca6,Everyone,7795,1,comprehension-2
3495,blue,36,,FALSE,Graduated College,unpleasant,227991,1716737443423,1716737215432,female,English,disjunctive,6547a68d2a815c91f2465658,665354b2a5b00d196b367033,665353d08d37546e94979ca6,FALSE,4538,2,comprehension-2
3495,blue,36,,NA,Graduated College,unpleasant,227991,1716737443423,1716737215432,female,English,disjunctive,6547a68d2a815c91f2465658,665354b2a5b00d196b367033,665353d08d37546e94979ca6,7,38522,1,critical
3496,red,26,,Sound A,Higher degree,unpleasant,96198,1716737445795,1716737349597,female,English,disjunctive,5e9086ca917d9039e3c4cd25,6653553c21309814d2aa1f77,665353d08d37546e94979ca6,Sound A,3220,1,comprehension
3496,red,26,,Sound A,Higher degree,unpleasant,96198,1716737445795,1716737349597,female,English,disjunctive,5e9086ca917d9039e3c4cd25,6653553c21309814d2aa1f77,665353d08d37546e94979ca6,Sound B,3107,2,comprehension
3496,red,26,,Sound A,Higher degree,unpleasant,96198,1716737445795,1716737349597,female,English,disjunctive,5e9086ca917d9039e3c4cd25,6653553c21309814d2aa1f77,665353d08d37546e94979ca6,Sound A,2450,3,comprehension
3496,red,26,,Sound B,Higher degree,unpleasant,96198,1716737445795,1716737349597,female,English,disjunctive,5e9086ca917d9039e3c4cd25,6653553c21309814d2aa1f77,665353d08d37546e94979ca6,Sound B,1561,4,comprehension
3496,red,26,,Everyone,Higher degree,unpleasant,96198,1716737445795,1716737349597,female,English,disjunctive,5e9086ca917d9039e3c4cd25,6653553c21309814d2aa1f77,665353d08d37546e94979ca6,Everyone,3945,1,comprehension-2
3496,red,26,,FALSE,Higher degree,unpleasant,96198,1716737445795,1716737349597,female,English,disjunctive,5e9086ca917d9039e3c4cd25,6653553c21309814d2aa1f77,665353d08d37546e94979ca6,FALSE,2440,2,comprehension-2
3496,red,26,,NA,Higher degree,unpleasant,96198,1716737445795,1716737349597,female,English,disjunctive,5e9086ca917d9039e3c4cd25,6653553c21309814d2aa1f77,665353d08d37546e94979ca6,1,20720,1,critical
3497,red,40,,Sound A,Graduated College,unpleasant,172566,1716737443995,1716737271429,female,English,conjunctive,616dcdf2016c4df40e268bde,665354f0834fb194ffbe043e,665353d08d37546e94979ca6,Sound A,11166,1,comprehension
3497,red,40,,Sound B,Graduated College,unpleasant,172566,1716737443995,1716737271429,female,English,conjunctive,616dcdf2016c4df40e268bde,665354f0834fb194ffbe043e,665353d08d37546e94979ca6,Sound B,1819,2,comprehension
3497,red,40,,Sound B,Graduated College,unpleasant,172566,1716737443995,1716737271429,female,English,conjunctive,616dcdf2016c4df40e268bde,665354f0834fb194ffbe043e,665353d08d37546e94979ca6,Sound B,1435,3,comprehension
3497,red,40,,Sound B,Graduated College,unpleasant,172566,1716737443995,1716737271429,female,English,conjunctive,616dcdf2016c4df40e268bde,665354f0834fb194ffbe043e,665353d08d37546e94979ca6,Sound B,1109,4,comprehension
3497,red,40,,Everyone,Graduated College,unpleasant,172566,1716737443995,1716737271429,female,English,conjunctive,616dcdf2016c4df40e268bde,665354f0834fb194ffbe043e,665353d08d37546e94979ca6,Everyone,4588,1,comprehension-2
3497,red,40,,FALSE,Graduated College,unpleasant,172566,1716737443995,1716737271429,female,English,conjunctive,616dcdf2016c4df40e268bde,665354f0834fb194ffbe043e,665353d08d37546e94979ca6,FALSE,3952,2,comprehension-2
3497,red,40,,NA,Graduated College,unpleasant,172566,1716737443995,1716737271429,female,English,conjunctive,616dcdf2016c4df40e268bde,665354f0834fb194ffbe043e,665353d08d37546e94979ca6,1,26217,1,critical
3498,blue,53,,Sound A,Higher degree,neutral,185216,1716737599013,1716737413797,male,english,disjunctive,5ce6e7e7023d1600192ff23f,6653557a96690d7ae977f82d,665353d08d37546e94979ca6,Sound A,5735,1,comprehension
3498,blue,53,,Sound A,Higher degree,neutral,185216,1716737599013,1716737413797,male,english,disjunctive,5ce6e7e7023d1600192ff23f,6653557a96690d7ae977f82d,665353d08d37546e94979ca6,Sound A,2627,2,comprehension
3498,blue,53,,Sound A,Higher degree,neutral,185216,1716737599013,1716737413797,male,english,disjunctive,5ce6e7e7023d1600192ff23f,6653557a96690d7ae977f82d,665353d08d37546e94979ca6,Sound A,1972,3,comprehension
3498,blue,53,,Sound B,Higher degree,neutral,185216,1716737599013,1716737413797,male,english,disjunctive,5ce6e7e7023d1600192ff23f,6653557a96690d7ae977f82d,665353d08d37546e94979ca6,Sound B,2937,4,comprehension
3498,blue,53,,Everyone,Higher degree,neutral,185216,1716737599013,1716737413797,male,english,disjunctive,5ce6e7e7023d1600192ff23f,6653557a96690d7ae977f82d,665353d08d37546e94979ca6,Everyone,5143,1,comprehension-2
3498,blue,53,,FALSE,Higher degree,neutral,185216,1716737599013,1716737413797,male,english,disjunctive,5ce6e7e7023d1600192ff23f,6653557a96690d7ae977f82d,665353d08d37546e94979ca6,FALSE,4384,2,comprehension-2
3498,blue,53,,NA,Higher degree,neutral,185216,1716737599013,1716737413797,male,english,disjunctive,5ce6e7e7023d1600192ff23f,6653557a96690d7ae977f82d,665353d08d37546e94979ca6,6,48857,1,critical
3499,red,32,,Sound A,Higher degree,unpleasant,206154,1716737633882,1716737427728,female,english,disjunctive,58278ae08cba990001adf1c8,6653558acbec1d69819d387c,665353d08d37546e94979ca6,Sound A,15447,1,comprehension
3499,red,32,,Sound A,Higher degree,unpleasant,206154,1716737633882,1716737427728,female,english,disjunctive,58278ae08cba990001adf1c8,6653558acbec1d69819d387c,665353d08d37546e94979ca6,Sound A,3291,2,comprehension
3499,red,32,,Sound A,Higher degree,unpleasant,206154,1716737633882,1716737427728,female,english,disjunctive,58278ae08cba990001adf1c8,6653558acbec1d69819d387c,665353d08d37546e94979ca6,Sound A,1720,3,comprehension
3499,red,32,,Sound B,Higher degree,unpleasant,206154,1716737633882,1716737427728,female,english,disjunctive,58278ae08cba990001adf1c8,6653558acbec1d69819d387c,665353d08d37546e94979ca6,Sound B,1650,4,comprehension
3499,red,32,,Everyone,Higher degree,unpleasant,206154,1716737633882,1716737427728,female,english,disjunctive,58278ae08cba990001adf1c8,6653558acbec1d69819d387c,665353d08d37546e94979ca6,Everyone,5230,1,comprehension-2
3499,red,32,,FALSE,Higher degree,unpleasant,206154,1716737633882,1716737427728,female,english,disjunctive,58278ae08cba990001adf1c8,6653558acbec1d69819d387c,665353d08d37546e94979ca6,FALSE,4230,2,comprehension-2
3499,red,32,,NA,Higher degree,unpleasant,206154,1716737633882,1716737427728,female,english,disjunctive,58278ae08cba990001adf1c8,6653558acbec1d69819d387c,665353d08d37546e94979ca6,1,39338,1,critical
3500,red,26,,Sound A,Higher degree,pleasant,176557,1716737726733,1716737550176,male,English,conjunctive,603e1fe6849f5c63a9997cf5,66535605723318ccd05853e6,665353d08d37546e94979ca6,Sound A,13323,1,comprehension
3500,red,26,,Sound B,Higher degree,pleasant,176557,1716737726733,1716737550176,male,English,conjunctive,603e1fe6849f5c63a9997cf5,66535605723318ccd05853e6,665353d08d37546e94979ca6,Sound B,5294,2,comprehension
3500,red,26,,Sound B,Higher degree,pleasant,176557,1716737726733,1716737550176,male,English,conjunctive,603e1fe6849f5c63a9997cf5,66535605723318ccd05853e6,665353d08d37546e94979ca6,Sound B,3563,3,comprehension
3500,red,26,,Sound B,Higher degree,pleasant,176557,1716737726733,1716737550176,male,English,conjunctive,603e1fe6849f5c63a9997cf5,66535605723318ccd05853e6,665353d08d37546e94979ca6,Sound B,917,4,comprehension
3500,red,26,,Everyone,Higher degree,pleasant,176557,1716737726733,1716737550176,male,English,conjunctive,603e1fe6849f5c63a9997cf5,66535605723318ccd05853e6,665353d08d37546e94979ca6,Everyone,5255,1,comprehension-2
3500,red,26,,FALSE,Higher degree,pleasant,176557,1716737726733,1716737550176,male,English,conjunctive,603e1fe6849f5c63a9997cf5,66535605723318ccd05853e6,665353d08d37546e94979ca6,FALSE,2302,2,comprehension-2
3500,red,26,,NA,Higher degree,pleasant,176557,1716737726733,1716737550176,male,English,conjunctive,603e1fe6849f5c63a9997cf5,66535605723318ccd05853e6,665353d08d37546e94979ca6,1,27267,1,critical
3501,red,24,,Sound A,Higher degree,pleasant,171177,1716737755614,1716737584437,male,English,disjunctive,631797b16c44e201ca651911,66535628a47ffa34fb49b556,665353d08d37546e94979ca6,Sound A,5387,1,comprehension
3501,red,24,,Sound A,Higher degree,pleasant,171177,1716737755614,1716737584437,male,English,disjunctive,631797b16c44e201ca651911,66535628a47ffa34fb49b556,665353d08d37546e94979ca6,Sound A,2934,2,comprehension
3501,red,24,,Sound A,Higher degree,pleasant,171177,1716737755614,1716737584437,male,English,disjunctive,631797b16c44e201ca651911,66535628a47ffa34fb49b556,665353d08d37546e94979ca6,Sound A,1415,3,comprehension
3501,red,24,,Sound B,Higher degree,pleasant,171177,1716737755614,1716737584437,male,English,disjunctive,631797b16c44e201ca651911,66535628a47ffa34fb49b556,665353d08d37546e94979ca6,Sound B,1344,4,comprehension
3501,red,24,,Everyone,Higher degree,pleasant,171177,1716737755614,1716737584437,male,English,disjunctive,631797b16c44e201ca651911,66535628a47ffa34fb49b556,665353d08d37546e94979ca6,Everyone,5673,1,comprehension-2
3501,red,24,,FALSE,Higher degree,pleasant,171177,1716737755614,1716737584437,male,English,disjunctive,631797b16c44e201ca651911,66535628a47ffa34fb49b556,665353d08d37546e94979ca6,FALSE,2840,2,comprehension-2
3501,red,24,,NA,Higher degree,pleasant,171177,1716737755614,1716737584437,male,English,disjunctive,631797b16c44e201ca651911,66535628a47ffa34fb49b556,665353d08d37546e94979ca6,1,32883,1,critical
3502,blue,21,,Sound A,Graduated College,unpleasant,166436,1716737783683,1716737617247,male,english,conjunctive,638211424f5576b61d075c62,6653564ef3b03aa667aa4641,665353d08d37546e94979ca6,Sound A,4566,1,comprehension
3502,blue,21,,Sound B,Graduated College,unpleasant,166436,1716737783683,1716737617247,male,english,conjunctive,638211424f5576b61d075c62,6653564ef3b03aa667aa4641,665353d08d37546e94979ca6,Sound B,1263,2,comprehension
3502,blue,21,,Sound B,Graduated College,unpleasant,166436,1716737783683,1716737617247,male,english,conjunctive,638211424f5576b61d075c62,6653564ef3b03aa667aa4641,665353d08d37546e94979ca6,Sound B,1103,3,comprehension
3502,blue,21,,Sound B,Graduated College,unpleasant,166436,1716737783683,1716737617247,male,english,conjunctive,638211424f5576b61d075c62,6653564ef3b03aa667aa4641,665353d08d37546e94979ca6,Sound B,1060,4,comprehension
3502,blue,21,,Everyone,Graduated College,unpleasant,166436,1716737783683,1716737617247,male,english,conjunctive,638211424f5576b61d075c62,6653564ef3b03aa667aa4641,665353d08d37546e94979ca6,Everyone,3172,1,comprehension-2
3502,blue,21,,FALSE,Graduated College,unpleasant,166436,1716737783683,1716737617247,male,english,conjunctive,638211424f5576b61d075c62,6653564ef3b03aa667aa4641,665353d08d37546e94979ca6,FALSE,3850,2,comprehension-2
3502,blue,21,,NA,Graduated College,unpleasant,166436,1716737783683,1716737617247,male,english,conjunctive,638211424f5576b61d075c62,6653564ef3b03aa667aa4641,665353d08d37546e94979ca6,7,33338,1,critical
3503,red,41,,Sound A,Graduated College,unpleasant,378337,1716737809410,1716737431073,female,Yoruba,conjunctive,605467d5a3ae5fb3ec1970ad,66535588167f32bf40138331,665353d08d37546e94979ca6,Sound A,6156,1,comprehension
3503,red,41,,Sound B,Graduated College,unpleasant,378337,1716737809410,1716737431073,female,Yoruba,conjunctive,605467d5a3ae5fb3ec1970ad,66535588167f32bf40138331,665353d08d37546e94979ca6,Sound B,19295,2,comprehension
3503,red,41,,Sound B,Graduated College,unpleasant,378337,1716737809410,1716737431073,female,Yoruba,conjunctive,605467d5a3ae5fb3ec1970ad,66535588167f32bf40138331,665353d08d37546e94979ca6,Sound B,9883,3,comprehension
3503,red,41,,Sound B,Graduated College,unpleasant,378337,1716737809410,1716737431073,female,Yoruba,conjunctive,605467d5a3ae5fb3ec1970ad,66535588167f32bf40138331,665353d08d37546e94979ca6,Sound B,6034,4,comprehension
3503,red,41,,Everyone,Graduated College,unpleasant,378337,1716737809410,1716737431073,female,Yoruba,conjunctive,605467d5a3ae5fb3ec1970ad,66535588167f32bf40138331,665353d08d37546e94979ca6,Everyone,5566,1,comprehension-2
3503,red,41,,FALSE,Graduated College,unpleasant,378337,1716737809410,1716737431073,female,Yoruba,conjunctive,605467d5a3ae5fb3ec1970ad,66535588167f32bf40138331,665353d08d37546e94979ca6,FALSE,5734,2,comprehension-2
3503,red,41,,NA,Graduated College,unpleasant,378337,1716737809410,1716737431073,female,Yoruba,conjunctive,605467d5a3ae5fb3ec1970ad,66535588167f32bf40138331,665353d08d37546e94979ca6,4,111701,1,critical
3504,blue,24,,Sound A,Graduated College,unpleasant,173773,1716737835169,1716737661396,female,English,conjunctive,6107150885536b27225605f2,6653566e190f77334de1e4ce,665353d08d37546e94979ca6,Sound A,4934,1,comprehension
3504,blue,24,,Sound B,Graduated College,unpleasant,173773,1716737835169,1716737661396,female,English,conjunctive,6107150885536b27225605f2,6653566e190f77334de1e4ce,665353d08d37546e94979ca6,Sound B,2466,2,comprehension
3504,blue,24,,Sound B,Graduated College,unpleasant,173773,1716737835169,1716737661396,female,English,conjunctive,6107150885536b27225605f2,6653566e190f77334de1e4ce,665353d08d37546e94979ca6,Sound B,1248,3,comprehension
3504,blue,24,,Sound B,Graduated College,unpleasant,173773,1716737835169,1716737661396,female,English,conjunctive,6107150885536b27225605f2,6653566e190f77334de1e4ce,665353d08d37546e94979ca6,Sound B,1367,4,comprehension
3504,blue,24,,Everyone,Graduated College,unpleasant,173773,1716737835169,1716737661396,female,English,conjunctive,6107150885536b27225605f2,6653566e190f77334de1e4ce,665353d08d37546e94979ca6,Everyone,3817,1,comprehension-2
3504,blue,24,,FALSE,Graduated College,unpleasant,173773,1716737835169,1716737661396,female,English,conjunctive,6107150885536b27225605f2,6653566e190f77334de1e4ce,665353d08d37546e94979ca6,FALSE,3469,2,comprehension-2
3504,blue,24,,NA,Graduated College,unpleasant,173773,1716737835169,1716737661396,female,English,conjunctive,6107150885536b27225605f2,6653566e190f77334de1e4ce,665353d08d37546e94979ca6,2,39299,1,critical
3505,blue,22,,Sound A,Graduated College,unpleasant,134673,1716737934898,1716737800225,female,English ,disjunctive,5da6c9f479d2ea0016002983,66535700cf6a3c7d4385ff01,665353d08d37546e94979ca6,Sound A,5434,1,comprehension
3505,blue,22,,Sound A,Graduated College,unpleasant,134673,1716737934898,1716737800225,female,English ,disjunctive,5da6c9f479d2ea0016002983,66535700cf6a3c7d4385ff01,665353d08d37546e94979ca6,Sound A,1081,2,comprehension
3505,blue,22,,Sound A,Graduated College,unpleasant,134673,1716737934898,1716737800225,female,English ,disjunctive,5da6c9f479d2ea0016002983,66535700cf6a3c7d4385ff01,665353d08d37546e94979ca6,Sound A,5000,3,comprehension
3505,blue,22,,Sound B,Graduated College,unpleasant,134673,1716737934898,1716737800225,female,English ,disjunctive,5da6c9f479d2ea0016002983,66535700cf6a3c7d4385ff01,665353d08d37546e94979ca6,Sound B,4634,4,comprehension
3505,blue,22,,Everyone,Graduated College,unpleasant,134673,1716737934898,1716737800225,female,English ,disjunctive,5da6c9f479d2ea0016002983,66535700cf6a3c7d4385ff01,665353d08d37546e94979ca6,Everyone,3749,1,comprehension-2
3505,blue,22,,FALSE,Graduated College,unpleasant,134673,1716737934898,1716737800225,female,English ,disjunctive,5da6c9f479d2ea0016002983,66535700cf6a3c7d4385ff01,665353d08d37546e94979ca6,FALSE,2682,2,comprehension-2
3505,blue,22,,NA,Graduated College,unpleasant,134673,1716737934898,1716737800225,female,English ,disjunctive,5da6c9f479d2ea0016002983,66535700cf6a3c7d4385ff01,665353d08d37546e94979ca6,6,30281,1,critical
3506,red,24,,Sound A,Higher degree,neutral,122488,1716737988091,1716737865603,female,"English, Mandarin",conjunctive,5c9ca007e3b6c4001625509c,6653573c10ca11939058ddb6,665353d08d37546e94979ca6,Sound A,3050,1,comprehension
3506,red,24,,Sound B,Higher degree,neutral,122488,1716737988091,1716737865603,female,"English, Mandarin",conjunctive,5c9ca007e3b6c4001625509c,6653573c10ca11939058ddb6,665353d08d37546e94979ca6,Sound B,2939,2,comprehension
3506,red,24,,Sound B,Higher degree,neutral,122488,1716737988091,1716737865603,female,"English, Mandarin",conjunctive,5c9ca007e3b6c4001625509c,6653573c10ca11939058ddb6,665353d08d37546e94979ca6,Sound B,1428,3,comprehension
3506,red,24,,Sound B,Higher degree,neutral,122488,1716737988091,1716737865603,female,"English, Mandarin",conjunctive,5c9ca007e3b6c4001625509c,6653573c10ca11939058ddb6,665353d08d37546e94979ca6,Sound B,1088,4,comprehension
3506,red,24,,Everyone,Higher degree,neutral,122488,1716737988091,1716737865603,female,"English, Mandarin",conjunctive,5c9ca007e3b6c4001625509c,6653573c10ca11939058ddb6,665353d08d37546e94979ca6,Everyone,2335,1,comprehension-2
3506,red,24,,FALSE,Higher degree,neutral,122488,1716737988091,1716737865603,female,"English, Mandarin",conjunctive,5c9ca007e3b6c4001625509c,6653573c10ca11939058ddb6,665353d08d37546e94979ca6,FALSE,2051,2,comprehension-2
3506,red,24,,NA,Higher degree,neutral,122488,1716737988091,1716737865603,female,"English, Mandarin",conjunctive,5c9ca007e3b6c4001625509c,6653573c10ca11939058ddb6,665353d08d37546e94979ca6,2,24170,1,critical
3507,red,26,,Sound A,Higher degree,unpleasant,178488,1716737989714,1716737811226,female,English,conjunctive,5b991099d78992000184033b,665357078dbae7a1d0a36d25,665353d08d37546e94979ca6,Sound A,13813,1,comprehension
3507,red,26,,Sound B,Higher degree,unpleasant,178488,1716737989714,1716737811226,female,English,conjunctive,5b991099d78992000184033b,665357078dbae7a1d0a36d25,665353d08d37546e94979ca6,Sound B,3935,2,comprehension
3507,red,26,,Sound B,Higher degree,unpleasant,178488,1716737989714,1716737811226,female,English,conjunctive,5b991099d78992000184033b,665357078dbae7a1d0a36d25,665353d08d37546e94979ca6,Sound B,2177,3,comprehension
3507,red,26,,Sound B,Higher degree,unpleasant,178488,1716737989714,1716737811226,female,English,conjunctive,5b991099d78992000184033b,665357078dbae7a1d0a36d25,665353d08d37546e94979ca6,Sound B,1806,4,comprehension
3507,red,26,,Everyone,Higher degree,unpleasant,178488,1716737989714,1716737811226,female,English,conjunctive,5b991099d78992000184033b,665357078dbae7a1d0a36d25,665353d08d37546e94979ca6,Everyone,5193,1,comprehension-2
3507,red,26,,FALSE,Higher degree,unpleasant,178488,1716737989714,1716737811226,female,English,conjunctive,5b991099d78992000184033b,665357078dbae7a1d0a36d25,665353d08d37546e94979ca6,FALSE,3924,2,comprehension-2
3507,red,26,,NA,Higher degree,unpleasant,178488,1716737989714,1716737811226,female,English,conjunctive,5b991099d78992000184033b,665357078dbae7a1d0a36d25,665353d08d37546e94979ca6,2,51394,1,critical
3508,blue,26,,Sound A,Higher degree,pleasant,212607,1716738014352,1716737801745,male,"english, german",conjunctive,5feca7cccbe069e3cf2ad284,66535702a5b00d196b3670ca,665353d08d37546e94979ca6,Sound A,5319,1,comprehension
3508,blue,26,,Sound B,Higher degree,pleasant,212607,1716738014352,1716737801745,male,"english, german",conjunctive,5feca7cccbe069e3cf2ad284,66535702a5b00d196b3670ca,665353d08d37546e94979ca6,Sound B,1479,2,comprehension
3508,blue,26,,Sound B,Higher degree,pleasant,212607,1716738014352,1716737801745,male,"english, german",conjunctive,5feca7cccbe069e3cf2ad284,66535702a5b00d196b3670ca,665353d08d37546e94979ca6,Sound B,1487,3,comprehension
3508,blue,26,,Sound B,Higher degree,pleasant,212607,1716738014352,1716737801745,male,"english, german",conjunctive,5feca7cccbe069e3cf2ad284,66535702a5b00d196b3670ca,665353d08d37546e94979ca6,Sound B,1520,4,comprehension
3508,blue,26,,Everyone,Higher degree,pleasant,212607,1716738014352,1716737801745,male,"english, german",conjunctive,5feca7cccbe069e3cf2ad284,66535702a5b00d196b3670ca,665353d08d37546e94979ca6,Everyone,5514,1,comprehension-2
3508,blue,26,,FALSE,Higher degree,pleasant,212607,1716738014352,1716737801745,male,"english, german",conjunctive,5feca7cccbe069e3cf2ad284,66535702a5b00d196b3670ca,665353d08d37546e94979ca6,FALSE,3469,2,comprehension-2
3508,blue,26,,NA,Higher degree,pleasant,212607,1716738014352,1716737801745,male,"english, german",conjunctive,5feca7cccbe069e3cf2ad284,66535702a5b00d196b3670ca,665353d08d37546e94979ca6,1,39108,1,critical
3509,blue,50,,Sound A,Graduated College,unpleasant,252575,1716738058699,1716737806124,female,english,disjunctive,5c8ad6fb3b6f3d00013d7ab1,6653571b62ea9616916ecaee,665353d08d37546e94979ca6,Sound B,12603,1,comprehension
3509,blue,50,,Sound A,Graduated College,unpleasant,252575,1716738058699,1716737806124,female,english,disjunctive,5c8ad6fb3b6f3d00013d7ab1,6653571b62ea9616916ecaee,665353d08d37546e94979ca6,Sound A,27974,2,comprehension
3509,blue,50,,Sound A,Graduated College,unpleasant,252575,1716738058699,1716737806124,female,english,disjunctive,5c8ad6fb3b6f3d00013d7ab1,6653571b62ea9616916ecaee,665353d08d37546e94979ca6,Sound A,6444,3,comprehension
3509,blue,50,,Sound B,Graduated College,unpleasant,252575,1716738058699,1716737806124,female,english,disjunctive,5c8ad6fb3b6f3d00013d7ab1,6653571b62ea9616916ecaee,665353d08d37546e94979ca6,Sound B,2621,4,comprehension
3509,blue,50,,Everyone,Graduated College,unpleasant,252575,1716738058699,1716737806124,female,english,disjunctive,5c8ad6fb3b6f3d00013d7ab1,6653571b62ea9616916ecaee,665353d08d37546e94979ca6,Everyone,11700,1,comprehension-2
3509,blue,50,,FALSE,Graduated College,unpleasant,252575,1716738058699,1716737806124,female,english,disjunctive,5c8ad6fb3b6f3d00013d7ab1,6653571b62ea9616916ecaee,665353d08d37546e94979ca6,FALSE,3564,2,comprehension-2
3509,blue,50,,NA,Graduated College,unpleasant,252575,1716738058699,1716737806124,female,english,disjunctive,5c8ad6fb3b6f3d00013d7ab1,6653571b62ea9616916ecaee,665353d08d37546e94979ca6,7,59975,1,critical
3510,blue,41,"No comments to add, thank you.",Sound A,Higher degree,unpleasant,302079,1716738135776,1716737833697,female,English,disjunctive,5b29585924931e0001198e11,66535721190f77334de1e4e0,665353d08d37546e94979ca6,Sound A,19417,1,comprehension
3510,blue,41,"No comments to add, thank you.",Sound A,Higher degree,unpleasant,302079,1716738135776,1716737833697,female,English,disjunctive,5b29585924931e0001198e11,66535721190f77334de1e4e0,665353d08d37546e94979ca6,Sound A,25766,2,comprehension
3510,blue,41,"No comments to add, thank you.",Sound A,Higher degree,unpleasant,302079,1716738135776,1716737833697,female,English,disjunctive,5b29585924931e0001198e11,66535721190f77334de1e4e0,665353d08d37546e94979ca6,Sound A,2824,3,comprehension
3510,blue,41,"No comments to add, thank you.",Sound B,Higher degree,unpleasant,302079,1716738135776,1716737833697,female,English,disjunctive,5b29585924931e0001198e11,66535721190f77334de1e4e0,665353d08d37546e94979ca6,Sound B,7208,4,comprehension
3510,blue,41,"No comments to add, thank you.",Everyone,Higher degree,unpleasant,302079,1716738135776,1716737833697,female,English,disjunctive,5b29585924931e0001198e11,66535721190f77334de1e4e0,665353d08d37546e94979ca6,Everyone,3984,1,comprehension-2
3510,blue,41,"No comments to add, thank you.",FALSE,Higher degree,unpleasant,302079,1716738135776,1716737833697,female,English,disjunctive,5b29585924931e0001198e11,66535721190f77334de1e4e0,665353d08d37546e94979ca6,FALSE,5912,2,comprehension-2
3510,blue,41,"No comments to add, thank you.",NA,Higher degree,unpleasant,302079,1716738135776,1716737833697,female,English,disjunctive,5b29585924931e0001198e11,66535721190f77334de1e4e0,665353d08d37546e94979ca6,7,97112,1,critical
3511,blue,31,,Sound A,Graduated High-school,unpleasant,155439,1716738153181,1716737997742,male,English,conjunctive,63b984b103af17a2cc34db7f,665357c21791200ec7f2e5f0,665353d08d37546e94979ca6,Sound A,12340,1,comprehension
3511,blue,31,,Sound B,Graduated High-school,unpleasant,155439,1716738153181,1716737997742,male,English,conjunctive,63b984b103af17a2cc34db7f,665357c21791200ec7f2e5f0,665353d08d37546e94979ca6,Sound B,1882,2,comprehension
3511,blue,31,,Sound B,Graduated High-school,unpleasant,155439,1716738153181,1716737997742,male,English,conjunctive,63b984b103af17a2cc34db7f,665357c21791200ec7f2e5f0,665353d08d37546e94979ca6,Sound B,3068,3,comprehension
3511,blue,31,,Sound B,Graduated High-school,unpleasant,155439,1716738153181,1716737997742,male,English,conjunctive,63b984b103af17a2cc34db7f,665357c21791200ec7f2e5f0,665353d08d37546e94979ca6,Sound B,1668,4,comprehension
3511,blue,31,,Everyone,Graduated High-school,unpleasant,155439,1716738153181,1716737997742,male,English,conjunctive,63b984b103af17a2cc34db7f,665357c21791200ec7f2e5f0,665353d08d37546e94979ca6,Everyone,9219,1,comprehension-2
3511,blue,31,,FALSE,Graduated High-school,unpleasant,155439,1716738153181,1716737997742,male,English,conjunctive,63b984b103af17a2cc34db7f,665357c21791200ec7f2e5f0,665353d08d37546e94979ca6,FALSE,2893,2,comprehension-2
3511,blue,31,,NA,Graduated High-school,unpleasant,155439,1716738153181,1716737997742,male,English,conjunctive,63b984b103af17a2cc34db7f,665357c21791200ec7f2e5f0,665353d08d37546e94979ca6,7,41963,1,critical
3512,blue,33,,Sound A,Higher degree,pleasant,321013,1716738229046,1716737908033,female,English,conjunctive,6076aed15dbd280528549341,6653575c8d37546e94979d8b,665353d08d37546e94979ca6,Sound A,20256,1,comprehension
3512,blue,33,,Sound B,Higher degree,pleasant,321013,1716738229046,1716737908033,female,English,conjunctive,6076aed15dbd280528549341,6653575c8d37546e94979d8b,665353d08d37546e94979ca6,Sound B,8257,2,comprehension
3512,blue,33,,Sound B,Higher degree,pleasant,321013,1716738229046,1716737908033,female,English,conjunctive,6076aed15dbd280528549341,6653575c8d37546e94979d8b,665353d08d37546e94979ca6,Sound B,2668,3,comprehension
3512,blue,33,,Sound B,Higher degree,pleasant,321013,1716738229046,1716737908033,female,English,conjunctive,6076aed15dbd280528549341,6653575c8d37546e94979d8b,665353d08d37546e94979ca6,Sound B,2418,4,comprehension
3512,blue,33,,Everyone,Higher degree,pleasant,321013,1716738229046,1716737908033,female,English,conjunctive,6076aed15dbd280528549341,6653575c8d37546e94979d8b,665353d08d37546e94979ca6,Everyone,10953,1,comprehension-2
3512,blue,33,,FALSE,Higher degree,pleasant,321013,1716738229046,1716737908033,female,English,conjunctive,6076aed15dbd280528549341,6653575c8d37546e94979d8b,665353d08d37546e94979ca6,FALSE,7051,2,comprehension-2
3512,blue,33,,NA,Higher degree,pleasant,321013,1716738229046,1716737908033,female,English,conjunctive,6076aed15dbd280528549341,6653575c8d37546e94979d8b,665353d08d37546e94979ca6,1,86007,1,critical
3513,blue,51,,Sound A,Graduated High-school,neutral,272656,1716738837819,1716738565163,female,,disjunctive,657deb2968c10e5855c10d8a,665357a2ebe4cdcd0654dbee,665353d08d37546e94979ca6,Sound A,17575,1,comprehension
3513,blue,51,,Sound A,Graduated High-school,neutral,272656,1716738837819,1716738565163,female,,disjunctive,657deb2968c10e5855c10d8a,665357a2ebe4cdcd0654dbee,665353d08d37546e94979ca6,Sound A,14217,2,comprehension
3513,blue,51,,Sound A,Graduated High-school,neutral,272656,1716738837819,1716738565163,female,,disjunctive,657deb2968c10e5855c10d8a,665357a2ebe4cdcd0654dbee,665353d08d37546e94979ca6,Sound A,10828,3,comprehension
3513,blue,51,,Sound B,Graduated High-school,neutral,272656,1716738837819,1716738565163,female,,disjunctive,657deb2968c10e5855c10d8a,665357a2ebe4cdcd0654dbee,665353d08d37546e94979ca6,Sound B,2882,4,comprehension
3513,blue,51,,Everyone,Graduated High-school,neutral,272656,1716738837819,1716738565163,female,,disjunctive,657deb2968c10e5855c10d8a,665357a2ebe4cdcd0654dbee,665353d08d37546e94979ca6,Everyone,5556,1,comprehension-2
3513,blue,51,,FALSE,Graduated High-school,neutral,272656,1716738837819,1716738565163,female,,disjunctive,657deb2968c10e5855c10d8a,665357a2ebe4cdcd0654dbee,665353d08d37546e94979ca6,FALSE,3177,2,comprehension-2
3513,blue,51,,NA,Graduated High-school,neutral,272656,1716738837819,1716738565163,female,,disjunctive,657deb2968c10e5855c10d8a,665357a2ebe4cdcd0654dbee,665353d08d37546e94979ca6,4,73659,1,critical
3514,blue,21,,Sound A,Graduated College,neutral,79866,1716738837132,1716738757266,male,english,disjunctive,65f6eec129d7c63f3338bfc6,66535ab85bd70f79cdf6399b,665353d08d37546e94979ca6,Sound A,6244,1,comprehension
3514,blue,21,,Sound A,Graduated College,neutral,79866,1716738837132,1716738757266,male,english,disjunctive,65f6eec129d7c63f3338bfc6,66535ab85bd70f79cdf6399b,665353d08d37546e94979ca6,Sound B,3873,2,comprehension
3514,blue,21,,Sound A,Graduated College,neutral,79866,1716738837132,1716738757266,male,english,disjunctive,65f6eec129d7c63f3338bfc6,66535ab85bd70f79cdf6399b,665353d08d37546e94979ca6,Sound A,1375,3,comprehension
3514,blue,21,,Sound B,Graduated College,neutral,79866,1716738837132,1716738757266,male,english,disjunctive,65f6eec129d7c63f3338bfc6,66535ab85bd70f79cdf6399b,665353d08d37546e94979ca6,Sound B,1468,4,comprehension
3514,blue,21,,Everyone,Graduated College,neutral,79866,1716738837132,1716738757266,male,english,disjunctive,65f6eec129d7c63f3338bfc6,66535ab85bd70f79cdf6399b,665353d08d37546e94979ca6,Followers of Religion 1,9531,1,comprehension-2
3514,blue,21,,FALSE,Graduated College,neutral,79866,1716738837132,1716738757266,male,english,disjunctive,65f6eec129d7c63f3338bfc6,66535ab85bd70f79cdf6399b,665353d08d37546e94979ca6,FALSE,4888,2,comprehension-2
3514,blue,21,,NA,Graduated College,neutral,79866,1716738837132,1716738757266,male,english,disjunctive,65f6eec129d7c63f3338bfc6,66535ab85bd70f79cdf6399b,665353d08d37546e94979ca6,4,11068,1,critical
3515,red,36,,Sound A,Graduated College,pleasant,89280,1716738846064,1716738756784,male,English,disjunctive,5b168549f6cef00001428386,66535abc2d6b4dd49cd7cb0e,665353d08d37546e94979ca6,Sound A,11348,1,comprehension
3515,red,36,,Sound A,Graduated College,pleasant,89280,1716738846064,1716738756784,male,English,disjunctive,5b168549f6cef00001428386,66535abc2d6b4dd49cd7cb0e,665353d08d37546e94979ca6,Sound B,2673,2,comprehension
3515,red,36,,Sound A,Graduated College,pleasant,89280,1716738846064,1716738756784,male,English,disjunctive,5b168549f6cef00001428386,66535abc2d6b4dd49cd7cb0e,665353d08d37546e94979ca6,Sound A,4019,3,comprehension
3515,red,36,,Sound B,Graduated College,pleasant,89280,1716738846064,1716738756784,male,English,disjunctive,5b168549f6cef00001428386,66535abc2d6b4dd49cd7cb0e,665353d08d37546e94979ca6,Sound B,2261,4,comprehension
3515,red,36,,Everyone,Graduated College,pleasant,89280,1716738846064,1716738756784,male,English,disjunctive,5b168549f6cef00001428386,66535abc2d6b4dd49cd7cb0e,665353d08d37546e94979ca6,Everyone,3599,1,comprehension-2
3515,red,36,,FALSE,Graduated College,pleasant,89280,1716738846064,1716738756784,male,English,disjunctive,5b168549f6cef00001428386,66535abc2d6b4dd49cd7cb0e,665353d08d37546e94979ca6,FALSE,2069,2,comprehension-2
3515,red,36,,NA,Graduated College,pleasant,89280,1716738846064,1716738756784,male,English,disjunctive,5b168549f6cef00001428386,66535abc2d6b4dd49cd7cb0e,665353d08d37546e94979ca6,1,16974,1,critical
3516,red,26,,Sound A,Higher degree,unpleasant,113543,1716738887057,1716738773514,female,English,conjunctive,5a99eb63b5e2110001c6c2b6,66535ace723318ccd05855bd,665353d08d37546e94979ca6,Sound A,5434,1,comprehension
3516,red,26,,Sound B,Higher degree,unpleasant,113543,1716738887057,1716738773514,female,English,conjunctive,5a99eb63b5e2110001c6c2b6,66535ace723318ccd05855bd,665353d08d37546e94979ca6,Sound B,1649,2,comprehension
3516,red,26,,Sound B,Higher degree,unpleasant,113543,1716738887057,1716738773514,female,English,conjunctive,5a99eb63b5e2110001c6c2b6,66535ace723318ccd05855bd,665353d08d37546e94979ca6,Sound B,1017,3,comprehension
3516,red,26,,Sound B,Higher degree,unpleasant,113543,1716738887057,1716738773514,female,English,conjunctive,5a99eb63b5e2110001c6c2b6,66535ace723318ccd05855bd,665353d08d37546e94979ca6,Sound B,1051,4,comprehension
3516,red,26,,Everyone,Higher degree,unpleasant,113543,1716738887057,1716738773514,female,English,conjunctive,5a99eb63b5e2110001c6c2b6,66535ace723318ccd05855bd,665353d08d37546e94979ca6,Everyone,2267,1,comprehension-2
3516,red,26,,FALSE,Higher degree,unpleasant,113543,1716738887057,1716738773514,female,English,conjunctive,5a99eb63b5e2110001c6c2b6,66535ace723318ccd05855bd,665353d08d37546e94979ca6,FALSE,1884,2,comprehension-2
3516,red,26,,NA,Higher degree,unpleasant,113543,1716738887057,1716738773514,female,English,conjunctive,5a99eb63b5e2110001c6c2b6,66535ace723318ccd05855bd,665353d08d37546e94979ca6,2,20418,1,critical
3517,blue,24,,Sound A,Graduated College,neutral,149012,1716738916776,1716738767764,female,English,disjunctive,65a61582ae053bf8e532c3f7,66535ac8f3b03aa667aa4734,665353d08d37546e94979ca6,Sound A,10819,1,comprehension
3517,blue,24,,Sound A,Graduated College,neutral,149012,1716738916776,1716738767764,female,English,disjunctive,65a61582ae053bf8e532c3f7,66535ac8f3b03aa667aa4734,665353d08d37546e94979ca6,Sound A,3320,2,comprehension
3517,blue,24,,Sound A,Graduated College,neutral,149012,1716738916776,1716738767764,female,English,disjunctive,65a61582ae053bf8e532c3f7,66535ac8f3b03aa667aa4734,665353d08d37546e94979ca6,Sound A,1299,3,comprehension
3517,blue,24,,Sound B,Graduated College,neutral,149012,1716738916776,1716738767764,female,English,disjunctive,65a61582ae053bf8e532c3f7,66535ac8f3b03aa667aa4734,665353d08d37546e94979ca6,Sound B,2344,4,comprehension
3517,blue,24,,Everyone,Graduated College,neutral,149012,1716738916776,1716738767764,female,English,disjunctive,65a61582ae053bf8e532c3f7,66535ac8f3b03aa667aa4734,665353d08d37546e94979ca6,Everyone,3511,1,comprehension-2
3517,blue,24,,FALSE,Graduated College,neutral,149012,1716738916776,1716738767764,female,English,disjunctive,65a61582ae053bf8e532c3f7,66535ac8f3b03aa667aa4734,665353d08d37546e94979ca6,FALSE,2691,2,comprehension-2
3517,blue,24,,NA,Graduated College,neutral,149012,1716738916776,1716738767764,female,English,disjunctive,65a61582ae053bf8e532c3f7,66535ac8f3b03aa667aa4734,665353d08d37546e94979ca6,5,38930,1,critical
3518,red,24,,Sound A,Graduated High-school,pleasant,139679,1716738920358,1716738780679,female,English,disjunctive,660d6cb402cfcdab984e43f1,66535ad09704097838dc5c67,665353d08d37546e94979ca6,Sound A,39393,1,comprehension
3518,red,24,,Sound A,Graduated High-school,pleasant,139679,1716738920358,1716738780679,female,English,disjunctive,660d6cb402cfcdab984e43f1,66535ad09704097838dc5c67,665353d08d37546e94979ca6,Sound A,9701,2,comprehension
3518,red,24,,Sound A,Graduated High-school,pleasant,139679,1716738920358,1716738780679,female,English,disjunctive,660d6cb402cfcdab984e43f1,66535ad09704097838dc5c67,665353d08d37546e94979ca6,Sound A,1338,3,comprehension
3518,red,24,,Sound B,Graduated High-school,pleasant,139679,1716738920358,1716738780679,female,English,disjunctive,660d6cb402cfcdab984e43f1,66535ad09704097838dc5c67,665353d08d37546e94979ca6,Sound B,945,4,comprehension
3518,red,24,,Everyone,Graduated High-school,pleasant,139679,1716738920358,1716738780679,female,English,disjunctive,660d6cb402cfcdab984e43f1,66535ad09704097838dc5c67,665353d08d37546e94979ca6,Everyone,11148,1,comprehension-2
3518,red,24,,FALSE,Graduated High-school,pleasant,139679,1716738920358,1716738780679,female,English,disjunctive,660d6cb402cfcdab984e43f1,66535ad09704097838dc5c67,665353d08d37546e94979ca6,FALSE,6213,2,comprehension-2
3518,red,24,,NA,Graduated High-school,pleasant,139679,1716738920358,1716738780679,female,English,disjunctive,660d6cb402cfcdab984e43f1,66535ad09704097838dc5c67,665353d08d37546e94979ca6,3,21343,1,critical
3519,red,26,,Sound A,Higher degree,neutral,165053,1716738948220,1716738783167,male,English,disjunctive,63d1a76e38c5060ade4c8e48,66535ad7723318ccd05855c3,665353d08d37546e94979ca6,Sound A,5155,1,comprehension
3519,red,26,,Sound A,Higher degree,neutral,165053,1716738948220,1716738783167,male,English,disjunctive,63d1a76e38c5060ade4c8e48,66535ad7723318ccd05855c3,665353d08d37546e94979ca6,Sound A,11518,2,comprehension
3519,red,26,,Sound A,Higher degree,neutral,165053,1716738948220,1716738783167,male,English,disjunctive,63d1a76e38c5060ade4c8e48,66535ad7723318ccd05855c3,665353d08d37546e94979ca6,Sound A,2930,3,comprehension
3519,red,26,,Sound B,Higher degree,neutral,165053,1716738948220,1716738783167,male,English,disjunctive,63d1a76e38c5060ade4c8e48,66535ad7723318ccd05855c3,665353d08d37546e94979ca6,Sound B,1093,4,comprehension
3519,red,26,,Everyone,Higher degree,neutral,165053,1716738948220,1716738783167,male,English,disjunctive,63d1a76e38c5060ade4c8e48,66535ad7723318ccd05855c3,665353d08d37546e94979ca6,Everyone,3386,1,comprehension-2
3519,red,26,,FALSE,Higher degree,neutral,165053,1716738948220,1716738783167,male,English,disjunctive,63d1a76e38c5060ade4c8e48,66535ad7723318ccd05855c3,665353d08d37546e94979ca6,FALSE,1743,2,comprehension-2
3519,red,26,,NA,Higher degree,neutral,165053,1716738948220,1716738783167,male,English,disjunctive,63d1a76e38c5060ade4c8e48,66535ad7723318ccd05855c3,665353d08d37546e94979ca6,6,29730,1,critical
3520,red,36,"Statistically it would be impossible to know, but I think people bias towards their belief being the outcome ",Sound A,Higher degree,neutral,207710,1716738951495,1716738743785,male,English ,disjunctive,631a623e14430da0ad2da8d4,66535aa9ba7a8a81e1d185e1,665353d08d37546e94979ca6,Sound A,8528,1,comprehension
3520,red,36,"Statistically it would be impossible to know, but I think people bias towards their belief being the outcome ",Sound A,Higher degree,neutral,207710,1716738951495,1716738743785,male,English ,disjunctive,631a623e14430da0ad2da8d4,66535aa9ba7a8a81e1d185e1,665353d08d37546e94979ca6,Sound A,6138,2,comprehension
3520,red,36,"Statistically it would be impossible to know, but I think people bias towards their belief being the outcome ",Sound A,Higher degree,neutral,207710,1716738951495,1716738743785,male,English ,disjunctive,631a623e14430da0ad2da8d4,66535aa9ba7a8a81e1d185e1,665353d08d37546e94979ca6,Sound A,1734,3,comprehension
3520,red,36,"Statistically it would be impossible to know, but I think people bias towards their belief being the outcome ",Sound B,Higher degree,neutral,207710,1716738951495,1716738743785,male,English ,disjunctive,631a623e14430da0ad2da8d4,66535aa9ba7a8a81e1d185e1,665353d08d37546e94979ca6,Sound B,1481,4,comprehension
3520,red,36,"Statistically it would be impossible to know, but I think people bias towards their belief being the outcome ",Everyone,Higher degree,neutral,207710,1716738951495,1716738743785,male,English ,disjunctive,631a623e14430da0ad2da8d4,66535aa9ba7a8a81e1d185e1,665353d08d37546e94979ca6,Everyone,4299,1,comprehension-2
3520,red,36,"Statistically it would be impossible to know, but I think people bias towards their belief being the outcome ",FALSE,Higher degree,neutral,207710,1716738951495,1716738743785,male,English ,disjunctive,631a623e14430da0ad2da8d4,66535aa9ba7a8a81e1d185e1,665353d08d37546e94979ca6,FALSE,2615,2,comprehension-2
3520,red,36,"Statistically it would be impossible to know, but I think people bias towards their belief being the outcome ",NA,Higher degree,neutral,207710,1716738951495,1716738743785,male,English ,disjunctive,631a623e14430da0ad2da8d4,66535aa9ba7a8a81e1d185e1,665353d08d37546e94979ca6,5,36345,1,critical
3524,red,29,,Sound A,Graduated College,pleasant,255289,1716739026852,1716738771563,female,lsiZulu,disjunctive,60a24e3ef1371606359e5b1b,66535ab7c1314d083f8e6e79,665353d08d37546e94979ca6,Sound A,2959,1,comprehension
3524,red,29,,Sound A,Graduated College,pleasant,255289,1716739026852,1716738771563,female,lsiZulu,disjunctive,60a24e3ef1371606359e5b1b,66535ab7c1314d083f8e6e79,665353d08d37546e94979ca6,Sound A,17214,2,comprehension
3524,red,29,,Sound A,Graduated College,pleasant,255289,1716739026852,1716738771563,female,lsiZulu,disjunctive,60a24e3ef1371606359e5b1b,66535ab7c1314d083f8e6e79,665353d08d37546e94979ca6,Sound A,23405,3,comprehension
3524,red,29,,Sound B,Graduated College,pleasant,255289,1716739026852,1716738771563,female,lsiZulu,disjunctive,60a24e3ef1371606359e5b1b,66535ab7c1314d083f8e6e79,665353d08d37546e94979ca6,Sound B,3216,4,comprehension
3524,red,29,,Everyone,Graduated College,pleasant,255289,1716739026852,1716738771563,female,lsiZulu,disjunctive,60a24e3ef1371606359e5b1b,66535ab7c1314d083f8e6e79,665353d08d37546e94979ca6,Everyone,8900,1,comprehension-2
3524,red,29,,FALSE,Graduated College,pleasant,255289,1716739026852,1716738771563,female,lsiZulu,disjunctive,60a24e3ef1371606359e5b1b,66535ab7c1314d083f8e6e79,665353d08d37546e94979ca6,FALSE,6426,2,comprehension-2
3524,red,29,,NA,Graduated College,pleasant,255289,1716739026852,1716738771563,female,lsiZulu,disjunctive,60a24e3ef1371606359e5b1b,66535ab7c1314d083f8e6e79,665353d08d37546e94979ca6,2,36366,1,critical
3529,red,42,,Sound A,Higher degree,neutral,257779,1716739135724,1716738877945,male,English,disjunctive,5bc0cacb228a7600013cf77e,66535b330dd6b120d62780b6,665353d08d37546e94979ca6,Sound A,14200,1,comprehension
3529,red,42,,Sound A,Higher degree,neutral,257779,1716739135724,1716738877945,male,English,disjunctive,5bc0cacb228a7600013cf77e,66535b330dd6b120d62780b6,665353d08d37546e94979ca6,Sound A,5951,2,comprehension
3529,red,42,,Sound A,Higher degree,neutral,257779,1716739135724,1716738877945,male,English,disjunctive,5bc0cacb228a7600013cf77e,66535b330dd6b120d62780b6,665353d08d37546e94979ca6,Sound A,1633,3,comprehension
3529,red,42,,Sound B,Higher degree,neutral,257779,1716739135724,1716738877945,male,English,disjunctive,5bc0cacb228a7600013cf77e,66535b330dd6b120d62780b6,665353d08d37546e94979ca6,Sound B,1975,4,comprehension
3529,red,42,,Everyone,Higher degree,neutral,257779,1716739135724,1716738877945,male,English,disjunctive,5bc0cacb228a7600013cf77e,66535b330dd6b120d62780b6,665353d08d37546e94979ca6,Everyone,5895,1,comprehension-2
3529,red,42,,FALSE,Higher degree,neutral,257779,1716739135724,1716738877945,male,English,disjunctive,5bc0cacb228a7600013cf77e,66535b330dd6b120d62780b6,665353d08d37546e94979ca6,FALSE,5615,2,comprehension-2
3529,red,42,,NA,Higher degree,neutral,257779,1716739135724,1716738877945,male,English,disjunctive,5bc0cacb228a7600013cf77e,66535b330dd6b120d62780b6,665353d08d37546e94979ca6,4,45992,1,critical
3532,blue,19,,Sound A,Graduated High-school,neutral,269200,1716739180963,1716738911763,male,English,disjunctive,62dc62a4a898b6caf66c299d,66535b56109f0c676aae9e11,665353d08d37546e94979ca6,Sound A,8104,1,comprehension
3532,blue,19,,Sound A,Graduated High-school,neutral,269200,1716739180963,1716738911763,male,English,disjunctive,62dc62a4a898b6caf66c299d,66535b56109f0c676aae9e11,665353d08d37546e94979ca6,Sound A,8979,2,comprehension
3532,blue,19,,Sound A,Graduated High-school,neutral,269200,1716739180963,1716738911763,male,English,disjunctive,62dc62a4a898b6caf66c299d,66535b56109f0c676aae9e11,665353d08d37546e94979ca6,Sound A,1667,3,comprehension
3532,blue,19,,Sound B,Graduated High-school,neutral,269200,1716739180963,1716738911763,male,English,disjunctive,62dc62a4a898b6caf66c299d,66535b56109f0c676aae9e11,665353d08d37546e94979ca6,Sound B,801,4,comprehension
3532,blue,19,,Everyone,Graduated High-school,neutral,269200,1716739180963,1716738911763,male,English,disjunctive,62dc62a4a898b6caf66c299d,66535b56109f0c676aae9e11,665353d08d37546e94979ca6,Everyone,2621,1,comprehension-2
3532,blue,19,,FALSE,Graduated High-school,neutral,269200,1716739180963,1716738911763,male,English,disjunctive,62dc62a4a898b6caf66c299d,66535b56109f0c676aae9e11,665353d08d37546e94979ca6,FALSE,1995,2,comprehension-2
3532,blue,19,,NA,Graduated High-school,neutral,269200,1716739180963,1716738911763,male,English,disjunctive,62dc62a4a898b6caf66c299d,66535b56109f0c676aae9e11,665353d08d37546e94979ca6,7,105183,1,critical
3535,blue,42,,Sound A,Higher degree,neutral,112297,1716739234531,1716739122234,female,English,disjunctive,606ee8f52a168c78fda80c23,66535c286c72a785f3367991,665353d08d37546e94979ca6,Sound A,7561,1,comprehension
3535,blue,42,,Sound A,Higher degree,neutral,112297,1716739234531,1716739122234,female,English,disjunctive,606ee8f52a168c78fda80c23,66535c286c72a785f3367991,665353d08d37546e94979ca6,Sound A,1218,2,comprehension
3535,blue,42,,Sound A,Higher degree,neutral,112297,1716739234531,1716739122234,female,English,disjunctive,606ee8f52a168c78fda80c23,66535c286c72a785f3367991,665353d08d37546e94979ca6,Sound A,1035,3,comprehension
3535,blue,42,,Sound B,Higher degree,neutral,112297,1716739234531,1716739122234,female,English,disjunctive,606ee8f52a168c78fda80c23,66535c286c72a785f3367991,665353d08d37546e94979ca6,Sound B,1589,4,comprehension
3535,blue,42,,Everyone,Higher degree,neutral,112297,1716739234531,1716739122234,female,English,disjunctive,606ee8f52a168c78fda80c23,66535c286c72a785f3367991,665353d08d37546e94979ca6,Everyone,2877,1,comprehension-2
3535,blue,42,,FALSE,Higher degree,neutral,112297,1716739234531,1716739122234,female,English,disjunctive,606ee8f52a168c78fda80c23,66535c286c72a785f3367991,665353d08d37546e94979ca6,FALSE,2585,2,comprehension-2
3535,blue,42,,NA,Higher degree,neutral,112297,1716739234531,1716739122234,female,English,disjunctive,606ee8f52a168c78fda80c23,66535c286c72a785f3367991,665353d08d37546e94979ca6,4,26213,1,critical
3539,blue,54,,Sound A,Higher degree,neutral,473218,1716739258691,1716738785473,male,"English, Spanish",disjunctive,645fb9c2ebb12bde48f78b28,66535aadefd7003d4b154105,665353d08d37546e94979ca6,Sound A,17486,1,comprehension
3539,blue,54,,Sound A,Higher degree,neutral,473218,1716739258691,1716738785473,male,"English, Spanish",disjunctive,645fb9c2ebb12bde48f78b28,66535aadefd7003d4b154105,665353d08d37546e94979ca6,Sound A,25032,2,comprehension
3539,blue,54,,Sound A,Higher degree,neutral,473218,1716739258691,1716738785473,male,"English, Spanish",disjunctive,645fb9c2ebb12bde48f78b28,66535aadefd7003d4b154105,665353d08d37546e94979ca6,Sound A,8987,3,comprehension
3539,blue,54,,Sound B,Higher degree,neutral,473218,1716739258691,1716738785473,male,"English, Spanish",disjunctive,645fb9c2ebb12bde48f78b28,66535aadefd7003d4b154105,665353d08d37546e94979ca6,Sound B,3295,4,comprehension
3539,blue,54,,Everyone,Higher degree,neutral,473218,1716739258691,1716738785473,male,"English, Spanish",disjunctive,645fb9c2ebb12bde48f78b28,66535aadefd7003d4b154105,665353d08d37546e94979ca6,Everyone,6914,1,comprehension-2
3539,blue,54,,FALSE,Higher degree,neutral,473218,1716739258691,1716738785473,male,"English, Spanish",disjunctive,645fb9c2ebb12bde48f78b28,66535aadefd7003d4b154105,665353d08d37546e94979ca6,FALSE,5497,2,comprehension-2
3539,blue,54,,NA,Higher degree,neutral,473218,1716739258691,1716738785473,male,"English, Spanish",disjunctive,645fb9c2ebb12bde48f78b28,66535aadefd7003d4b154105,665353d08d37546e94979ca6,4,143788,1,critical
3541,blue,58,none,Sound A,Graduated College,neutral,398484,1716739284569,1716738886085,female,English,disjunctive,5adbfe0b066c510001d407f8,66535b3c93a3bf78a1a208d4,665353d08d37546e94979ca6,Sound A,9803,1,comprehension
3541,blue,58,none,Sound A,Graduated College,neutral,398484,1716739284569,1716738886085,female,English,disjunctive,5adbfe0b066c510001d407f8,66535b3c93a3bf78a1a208d4,665353d08d37546e94979ca6,Sound A,11516,2,comprehension
3541,blue,58,none,Sound A,Graduated College,neutral,398484,1716739284569,1716738886085,female,English,disjunctive,5adbfe0b066c510001d407f8,66535b3c93a3bf78a1a208d4,665353d08d37546e94979ca6,Sound A,4088,3,comprehension
3541,blue,58,none,Sound B,Graduated College,neutral,398484,1716739284569,1716738886085,female,English,disjunctive,5adbfe0b066c510001d407f8,66535b3c93a3bf78a1a208d4,665353d08d37546e94979ca6,Sound B,2048,4,comprehension
3541,blue,58,none,Everyone,Graduated College,neutral,398484,1716739284569,1716738886085,female,English,disjunctive,5adbfe0b066c510001d407f8,66535b3c93a3bf78a1a208d4,665353d08d37546e94979ca6,Everyone,5799,1,comprehension-2
3541,blue,58,none,FALSE,Graduated College,neutral,398484,1716739284569,1716738886085,female,English,disjunctive,5adbfe0b066c510001d407f8,66535b3c93a3bf78a1a208d4,665353d08d37546e94979ca6,FALSE,4264,2,comprehension-2
3541,blue,58,none,NA,Graduated College,neutral,398484,1716739284569,1716738886085,female,English,disjunctive,5adbfe0b066c510001d407f8,66535b3c93a3bf78a1a208d4,665353d08d37546e94979ca6,5,136145,1,critical
3556,red,49,,Sound A,Graduated College,pleasant,196300,1716739378334,1716739182034,male,ENGLISH,conjunctive,612b5a2c55286e4cf74a63ee,66535c659e6f67f9a9a217eb,665353d08d37546e94979ca6,Sound A,13946,1,comprehension
3556,red,49,,Sound B,Graduated College,pleasant,196300,1716739378334,1716739182034,male,ENGLISH,conjunctive,612b5a2c55286e4cf74a63ee,66535c659e6f67f9a9a217eb,665353d08d37546e94979ca6,Sound B,2119,2,comprehension
3556,red,49,,Sound B,Graduated College,pleasant,196300,1716739378334,1716739182034,male,ENGLISH,conjunctive,612b5a2c55286e4cf74a63ee,66535c659e6f67f9a9a217eb,665353d08d37546e94979ca6,Sound B,1459,3,comprehension
3556,red,49,,Sound B,Graduated College,pleasant,196300,1716739378334,1716739182034,male,ENGLISH,conjunctive,612b5a2c55286e4cf74a63ee,66535c659e6f67f9a9a217eb,665353d08d37546e94979ca6,Sound B,1409,4,comprehension
3556,red,49,,Everyone,Graduated College,pleasant,196300,1716739378334,1716739182034,male,ENGLISH,conjunctive,612b5a2c55286e4cf74a63ee,66535c659e6f67f9a9a217eb,665353d08d37546e94979ca6,Everyone,3681,1,comprehension-2
3556,red,49,,FALSE,Graduated College,pleasant,196300,1716739378334,1716739182034,male,ENGLISH,conjunctive,612b5a2c55286e4cf74a63ee,66535c659e6f67f9a9a217eb,665353d08d37546e94979ca6,FALSE,4021,2,comprehension-2
3556,red,49,,NA,Graduated College,pleasant,196300,1716739378334,1716739182034,male,ENGLISH,conjunctive,612b5a2c55286e4cf74a63ee,66535c659e6f67f9a9a217eb,665353d08d37546e94979ca6,4,58731,1,critical
3521,blue,34,,Sound A,Graduated College,unpleasant,192288,1716738980572,1716738788284,other,English,conjunctive,5e237caac530bd62e210d540,66535adc1cdabd6cc2d368d1,665353d08d37546e94979ca6,Sound A,9522,1,comprehension
3521,blue,34,,Sound B,Graduated College,unpleasant,192288,1716738980572,1716738788284,other,English,conjunctive,5e237caac530bd62e210d540,66535adc1cdabd6cc2d368d1,665353d08d37546e94979ca6,Sound B,1789,2,comprehension
3521,blue,34,,Sound B,Graduated College,unpleasant,192288,1716738980572,1716738788284,other,English,conjunctive,5e237caac530bd62e210d540,66535adc1cdabd6cc2d368d1,665353d08d37546e94979ca6,Sound B,975,3,comprehension
3521,blue,34,,Sound B,Graduated College,unpleasant,192288,1716738980572,1716738788284,other,English,conjunctive,5e237caac530bd62e210d540,66535adc1cdabd6cc2d368d1,665353d08d37546e94979ca6,Sound B,1032,4,comprehension
3521,blue,34,,Everyone,Graduated College,unpleasant,192288,1716738980572,1716738788284,other,English,conjunctive,5e237caac530bd62e210d540,66535adc1cdabd6cc2d368d1,665353d08d37546e94979ca6,Everyone,5033,1,comprehension-2
3521,blue,34,,FALSE,Graduated College,unpleasant,192288,1716738980572,1716738788284,other,English,conjunctive,5e237caac530bd62e210d540,66535adc1cdabd6cc2d368d1,665353d08d37546e94979ca6,FALSE,4152,2,comprehension-2
3521,blue,34,,NA,Graduated College,unpleasant,192288,1716738980572,1716738788284,other,English,conjunctive,5e237caac530bd62e210d540,66535adc1cdabd6cc2d368d1,665353d08d37546e94979ca6,7,34778,1,critical
3522,red,30,,Sound A,Graduated College,neutral,163723,1716738984188,1716738820465,male,English,conjunctive,62d138e361857aef127c9e8b,66535ad56c72a785f336793e,665353d08d37546e94979ca6,Sound A,2021,1,comprehension
3522,red,30,,Sound B,Graduated College,neutral,163723,1716738984188,1716738820465,male,English,conjunctive,62d138e361857aef127c9e8b,66535ad56c72a785f336793e,665353d08d37546e94979ca6,Sound A,5663,2,comprehension
3522,red,30,,Sound B,Graduated College,neutral,163723,1716738984188,1716738820465,male,English,conjunctive,62d138e361857aef127c9e8b,66535ad56c72a785f336793e,665353d08d37546e94979ca6,Sound B,2472,3,comprehension
3522,red,30,,Sound B,Graduated College,neutral,163723,1716738984188,1716738820465,male,English,conjunctive,62d138e361857aef127c9e8b,66535ad56c72a785f336793e,665353d08d37546e94979ca6,Sound B,3292,4,comprehension
3522,red,30,,Everyone,Graduated College,neutral,163723,1716738984188,1716738820465,male,English,conjunctive,62d138e361857aef127c9e8b,66535ad56c72a785f336793e,665353d08d37546e94979ca6,Everyone,6406,1,comprehension-2
3522,red,30,,FALSE,Graduated College,neutral,163723,1716738984188,1716738820465,male,English,conjunctive,62d138e361857aef127c9e8b,66535ad56c72a785f336793e,665353d08d37546e94979ca6,FALSE,2770,2,comprehension-2
3522,red,30,,NA,Graduated College,neutral,163723,1716738984188,1716738820465,male,English,conjunctive,62d138e361857aef127c9e8b,66535ad56c72a785f336793e,665353d08d37546e94979ca6,3,54017,1,critical
3525,blue,32,,Sound A,Graduated College,neutral,263269,1716739035429,1716738772160,male,English,conjunctive,5da7aeeaf1f30c001892ffc9,66535ac9a5b00d196b3671e2,665353d08d37546e94979ca6,Sound A,3967,1,comprehension
3525,blue,32,,Sound B,Graduated College,neutral,263269,1716739035429,1716738772160,male,English,conjunctive,5da7aeeaf1f30c001892ffc9,66535ac9a5b00d196b3671e2,665353d08d37546e94979ca6,Sound B,1513,2,comprehension
3525,blue,32,,Sound B,Graduated College,neutral,263269,1716739035429,1716738772160,male,English,conjunctive,5da7aeeaf1f30c001892ffc9,66535ac9a5b00d196b3671e2,665353d08d37546e94979ca6,Sound B,1272,3,comprehension
3525,blue,32,,Sound B,Graduated College,neutral,263269,1716739035429,1716738772160,male,English,conjunctive,5da7aeeaf1f30c001892ffc9,66535ac9a5b00d196b3671e2,665353d08d37546e94979ca6,Sound B,752,4,comprehension
3525,blue,32,,Everyone,Graduated College,neutral,263269,1716739035429,1716738772160,male,English,conjunctive,5da7aeeaf1f30c001892ffc9,66535ac9a5b00d196b3671e2,665353d08d37546e94979ca6,Everyone,6585,1,comprehension-2
3525,blue,32,,FALSE,Graduated College,neutral,263269,1716739035429,1716738772160,male,English,conjunctive,5da7aeeaf1f30c001892ffc9,66535ac9a5b00d196b3671e2,665353d08d37546e94979ca6,FALSE,5309,2,comprehension-2
3525,blue,32,,NA,Graduated College,neutral,263269,1716739035429,1716738772160,male,English,conjunctive,5da7aeeaf1f30c001892ffc9,66535ac9a5b00d196b3671e2,665353d08d37546e94979ca6,6,65041,1,critical
3528,blue,35,,Sound A,Higher degree,unpleasant,278340,1716739121144,1716738842804,male,English,conjunctive,6234e1fa06407542a9efdd0e,66535b18b9ac285852a83794,665353d08d37546e94979ca6,Sound A,20094,1,comprehension
3528,blue,35,,Sound B,Higher degree,unpleasant,278340,1716739121144,1716738842804,male,English,conjunctive,6234e1fa06407542a9efdd0e,66535b18b9ac285852a83794,665353d08d37546e94979ca6,Sound B,5744,2,comprehension
3528,blue,35,,Sound B,Higher degree,unpleasant,278340,1716739121144,1716738842804,male,English,conjunctive,6234e1fa06407542a9efdd0e,66535b18b9ac285852a83794,665353d08d37546e94979ca6,Sound B,1043,3,comprehension
3528,blue,35,,Sound B,Higher degree,unpleasant,278340,1716739121144,1716738842804,male,English,conjunctive,6234e1fa06407542a9efdd0e,66535b18b9ac285852a83794,665353d08d37546e94979ca6,Sound B,917,4,comprehension
3528,blue,35,,Everyone,Higher degree,unpleasant,278340,1716739121144,1716738842804,male,English,conjunctive,6234e1fa06407542a9efdd0e,66535b18b9ac285852a83794,665353d08d37546e94979ca6,Everyone,6045,1,comprehension-2
3528,blue,35,,FALSE,Higher degree,unpleasant,278340,1716739121144,1716738842804,male,English,conjunctive,6234e1fa06407542a9efdd0e,66535b18b9ac285852a83794,665353d08d37546e94979ca6,FALSE,3684,2,comprehension-2
3528,blue,35,,NA,Higher degree,unpleasant,278340,1716739121144,1716738842804,male,English,conjunctive,6234e1fa06407542a9efdd0e,66535b18b9ac285852a83794,665353d08d37546e94979ca6,6,52240,1,critical
3533,blue,60,,Sound A,Graduated High-school,unpleasant,113383,1716739186945,1716739073562,male,English,conjunctive,5ea1f6cfccdbab0fdc270855,66535be70c377795533340e4,665353d08d37546e94979ca6,Sound A,20027,1,comprehension
3533,blue,60,,Sound B,Graduated High-school,unpleasant,113383,1716739186945,1716739073562,male,English,conjunctive,5ea1f6cfccdbab0fdc270855,66535be70c377795533340e4,665353d08d37546e94979ca6,Sound B,2263,2,comprehension
3533,blue,60,,Sound B,Graduated High-school,unpleasant,113383,1716739186945,1716739073562,male,English,conjunctive,5ea1f6cfccdbab0fdc270855,66535be70c377795533340e4,665353d08d37546e94979ca6,Sound B,3220,3,comprehension
3533,blue,60,,Sound B,Graduated High-school,unpleasant,113383,1716739186945,1716739073562,male,English,conjunctive,5ea1f6cfccdbab0fdc270855,66535be70c377795533340e4,665353d08d37546e94979ca6,Sound A,1332,4,comprehension
3533,blue,60,,Everyone,Graduated High-school,unpleasant,113383,1716739186945,1716739073562,male,English,conjunctive,5ea1f6cfccdbab0fdc270855,66535be70c377795533340e4,665353d08d37546e94979ca6,Followers of Religion 1,7546,1,comprehension-2
3533,blue,60,,FALSE,Graduated High-school,unpleasant,113383,1716739186945,1716739073562,male,English,conjunctive,5ea1f6cfccdbab0fdc270855,66535be70c377795533340e4,665353d08d37546e94979ca6,FALSE,7088,2,comprehension-2
3533,blue,60,,NA,Graduated High-school,unpleasant,113383,1716739186945,1716739073562,male,English,conjunctive,5ea1f6cfccdbab0fdc270855,66535be70c377795533340e4,665353d08d37546e94979ca6,3,9900,1,critical
3534,red,22,,Sound A,Graduated College,pleasant,160045,1716739202073,1716739042028,male,English,conjunctive,5ec407b491d65a0aec87e715,66535bddcec51d8467e1e605,665353d08d37546e94979ca6,Sound A,7367,1,comprehension
3534,red,22,,Sound B,Graduated College,pleasant,160045,1716739202073,1716739042028,male,English,conjunctive,5ec407b491d65a0aec87e715,66535bddcec51d8467e1e605,665353d08d37546e94979ca6,Sound B,2284,2,comprehension
3534,red,22,,Sound B,Graduated College,pleasant,160045,1716739202073,1716739042028,male,English,conjunctive,5ec407b491d65a0aec87e715,66535bddcec51d8467e1e605,665353d08d37546e94979ca6,Sound B,1555,3,comprehension
3534,red,22,,Sound B,Graduated College,pleasant,160045,1716739202073,1716739042028,male,English,conjunctive,5ec407b491d65a0aec87e715,66535bddcec51d8467e1e605,665353d08d37546e94979ca6,Sound B,1326,4,comprehension
3534,red,22,,Everyone,Graduated College,pleasant,160045,1716739202073,1716739042028,male,English,conjunctive,5ec407b491d65a0aec87e715,66535bddcec51d8467e1e605,665353d08d37546e94979ca6,Everyone,4407,1,comprehension-2
3534,red,22,,FALSE,Graduated College,pleasant,160045,1716739202073,1716739042028,male,English,conjunctive,5ec407b491d65a0aec87e715,66535bddcec51d8467e1e605,665353d08d37546e94979ca6,FALSE,2728,2,comprehension-2
3534,red,22,,NA,Graduated College,pleasant,160045,1716739202073,1716739042028,male,English,conjunctive,5ec407b491d65a0aec87e715,66535bddcec51d8467e1e605,665353d08d37546e94979ca6,6,43583,1,critical
3536,red,34,NO,Sound A,Higher degree,pleasant,316419,1716739238451,1716738922032,female,English,conjunctive,5fdf655646872e74654c435d,66535b47c0d178dcaed15cb9,665353d08d37546e94979ca6,Sound A,11439,1,comprehension
3536,red,34,NO,Sound B,Higher degree,pleasant,316419,1716739238451,1716738922032,female,English,conjunctive,5fdf655646872e74654c435d,66535b47c0d178dcaed15cb9,665353d08d37546e94979ca6,Sound B,2437,2,comprehension
3536,red,34,NO,Sound B,Higher degree,pleasant,316419,1716739238451,1716738922032,female,English,conjunctive,5fdf655646872e74654c435d,66535b47c0d178dcaed15cb9,665353d08d37546e94979ca6,Sound B,8120,3,comprehension
3536,red,34,NO,Sound B,Higher degree,pleasant,316419,1716739238451,1716738922032,female,English,conjunctive,5fdf655646872e74654c435d,66535b47c0d178dcaed15cb9,665353d08d37546e94979ca6,Sound B,2069,4,comprehension
3536,red,34,NO,Everyone,Higher degree,pleasant,316419,1716739238451,1716738922032,female,English,conjunctive,5fdf655646872e74654c435d,66535b47c0d178dcaed15cb9,665353d08d37546e94979ca6,Everyone,6953,1,comprehension-2
3536,red,34,NO,FALSE,Higher degree,pleasant,316419,1716739238451,1716738922032,female,English,conjunctive,5fdf655646872e74654c435d,66535b47c0d178dcaed15cb9,665353d08d37546e94979ca6,FALSE,4266,2,comprehension-2
3536,red,34,NO,NA,Higher degree,pleasant,316419,1716739238451,1716738922032,female,English,conjunctive,5fdf655646872e74654c435d,66535b47c0d178dcaed15cb9,665353d08d37546e94979ca6,1,22303,1,critical
3542,red,42,,Sound A,Higher degree,unpleasant,39336,1716739284820,1716739245484,female,English,disjunctive,606ee8f52a168c78fda80c23,66535c286c72a785f3367991,665353d08d37546e94979ca6,Sound A,5376,1,comprehension
3542,red,42,,Sound A,Higher degree,unpleasant,39336,1716739284820,1716739245484,female,English,disjunctive,606ee8f52a168c78fda80c23,66535c286c72a785f3367991,665353d08d37546e94979ca6,Sound A,963,2,comprehension
3542,red,42,,Sound A,Higher degree,unpleasant,39336,1716739284820,1716739245484,female,English,disjunctive,606ee8f52a168c78fda80c23,66535c286c72a785f3367991,665353d08d37546e94979ca6,Sound A,794,3,comprehension
3542,red,42,,Sound B,Higher degree,unpleasant,39336,1716739284820,1716739245484,female,English,disjunctive,606ee8f52a168c78fda80c23,66535c286c72a785f3367991,665353d08d37546e94979ca6,Sound B,767,4,comprehension
3542,red,42,,Everyone,Higher degree,unpleasant,39336,1716739284820,1716739245484,female,English,disjunctive,606ee8f52a168c78fda80c23,66535c286c72a785f3367991,665353d08d37546e94979ca6,Everyone,1404,1,comprehension-2
3542,red,42,,FALSE,Higher degree,unpleasant,39336,1716739284820,1716739245484,female,English,disjunctive,606ee8f52a168c78fda80c23,66535c286c72a785f3367991,665353d08d37546e94979ca6,FALSE,1334,2,comprehension-2
3542,red,42,,NA,Higher degree,unpleasant,39336,1716739284820,1716739245484,female,English,disjunctive,606ee8f52a168c78fda80c23,66535c286c72a785f3367991,665353d08d37546e94979ca6,4,4275,1,critical
3546,blue,36,,Sound A,Graduated College,neutral,252108,1716739301146,1716739049038,male,,disjunctive,5ec6b2084d19c80c7aa34c8d,66535bdf08450efcf7f64eb3,665353d08d37546e94979ca6,Sound A,15419,1,comprehension
3546,blue,36,,Sound A,Graduated College,neutral,252108,1716739301146,1716739049038,male,,disjunctive,5ec6b2084d19c80c7aa34c8d,66535bdf08450efcf7f64eb3,665353d08d37546e94979ca6,Sound A,9328,2,comprehension
3546,blue,36,,Sound A,Graduated College,neutral,252108,1716739301146,1716739049038,male,,disjunctive,5ec6b2084d19c80c7aa34c8d,66535bdf08450efcf7f64eb3,665353d08d37546e94979ca6,Sound A,3516,3,comprehension
3546,blue,36,,Sound B,Graduated College,neutral,252108,1716739301146,1716739049038,male,,disjunctive,5ec6b2084d19c80c7aa34c8d,66535bdf08450efcf7f64eb3,665353d08d37546e94979ca6,Sound B,3071,4,comprehension
3546,blue,36,,Everyone,Graduated College,neutral,252108,1716739301146,1716739049038,male,,disjunctive,5ec6b2084d19c80c7aa34c8d,66535bdf08450efcf7f64eb3,665353d08d37546e94979ca6,Everyone,8091,1,comprehension-2
3546,blue,36,,FALSE,Graduated College,neutral,252108,1716739301146,1716739049038,male,,disjunctive,5ec6b2084d19c80c7aa34c8d,66535bdf08450efcf7f64eb3,665353d08d37546e94979ca6,FALSE,4385,2,comprehension-2
3546,blue,36,,NA,Graduated College,neutral,252108,1716739301146,1716739049038,male,,disjunctive,5ec6b2084d19c80c7aa34c8d,66535bdf08450efcf7f64eb3,665353d08d37546e94979ca6,4,61842,1,critical
3550,red,46,,Sound A,Graduated College,neutral,170093,1716739330349,1716739160256,female,ENglish,disjunctive,5be29f27056ebf0001be7189,66535c51c25e8c454d8d00db,665353d08d37546e94979ca6,Sound A,10611,1,comprehension
3550,red,46,,Sound A,Graduated College,neutral,170093,1716739330349,1716739160256,female,ENglish,disjunctive,5be29f27056ebf0001be7189,66535c51c25e8c454d8d00db,665353d08d37546e94979ca6,Sound A,1166,2,comprehension
3550,red,46,,Sound A,Graduated College,neutral,170093,1716739330349,1716739160256,female,ENglish,disjunctive,5be29f27056ebf0001be7189,66535c51c25e8c454d8d00db,665353d08d37546e94979ca6,Sound A,1020,3,comprehension
3550,red,46,,Sound B,Graduated College,neutral,170093,1716739330349,1716739160256,female,ENglish,disjunctive,5be29f27056ebf0001be7189,66535c51c25e8c454d8d00db,665353d08d37546e94979ca6,Sound B,1325,4,comprehension
3550,red,46,,Everyone,Graduated College,neutral,170093,1716739330349,1716739160256,female,ENglish,disjunctive,5be29f27056ebf0001be7189,66535c51c25e8c454d8d00db,665353d08d37546e94979ca6,Everyone,3624,1,comprehension-2
3550,red,46,,FALSE,Graduated College,neutral,170093,1716739330349,1716739160256,female,ENglish,disjunctive,5be29f27056ebf0001be7189,66535c51c25e8c454d8d00db,665353d08d37546e94979ca6,FALSE,2714,2,comprehension-2
3550,red,46,,NA,Graduated College,neutral,170093,1716739330349,1716739160256,female,ENglish,disjunctive,5be29f27056ebf0001be7189,66535c51c25e8c454d8d00db,665353d08d37546e94979ca6,1,35476,1,critical
3523,blue,30,,Sound A,Higher degree,neutral,178754,1716739010488,1716738831734,female,English,conjunctive,5a8c553bb093f80001a812cf,66535b0bbc9052c5a915553e,665353d08d37546e94979ca6,Sound A,8884,1,comprehension
3523,blue,30,,Sound B,Higher degree,neutral,178754,1716739010488,1716738831734,female,English,conjunctive,5a8c553bb093f80001a812cf,66535b0bbc9052c5a915553e,665353d08d37546e94979ca6,Sound B,1564,2,comprehension
3523,blue,30,,Sound B,Higher degree,neutral,178754,1716739010488,1716738831734,female,English,conjunctive,5a8c553bb093f80001a812cf,66535b0bbc9052c5a915553e,665353d08d37546e94979ca6,Sound B,1072,3,comprehension
3523,blue,30,,Sound B,Higher degree,neutral,178754,1716739010488,1716738831734,female,English,conjunctive,5a8c553bb093f80001a812cf,66535b0bbc9052c5a915553e,665353d08d37546e94979ca6,Sound B,921,4,comprehension
3523,blue,30,,Everyone,Higher degree,neutral,178754,1716739010488,1716738831734,female,English,conjunctive,5a8c553bb093f80001a812cf,66535b0bbc9052c5a915553e,665353d08d37546e94979ca6,Everyone,4400,1,comprehension-2
3523,blue,30,,FALSE,Higher degree,neutral,178754,1716739010488,1716738831734,female,English,conjunctive,5a8c553bb093f80001a812cf,66535b0bbc9052c5a915553e,665353d08d37546e94979ca6,FALSE,4264,2,comprehension-2
3523,blue,30,,NA,Higher degree,neutral,178754,1716739010488,1716738831734,female,English,conjunctive,5a8c553bb093f80001a812cf,66535b0bbc9052c5a915553e,665353d08d37546e94979ca6,3,40032,1,critical
3526,blue,37,,Sound A,Graduated College,pleasant,64771,1716739043391,1716738978620,female,English,conjunctive,59e4e5953e4b5a00016aa037,66535b99ac2eecc711e42a1b,665353d08d37546e94979ca6,Sound A,8537,1,comprehension
3526,blue,37,,Sound B,Graduated College,pleasant,64771,1716739043391,1716738978620,female,English,conjunctive,59e4e5953e4b5a00016aa037,66535b99ac2eecc711e42a1b,665353d08d37546e94979ca6,Sound B,1329,2,comprehension
3526,blue,37,,Sound B,Graduated College,pleasant,64771,1716739043391,1716738978620,female,English,conjunctive,59e4e5953e4b5a00016aa037,66535b99ac2eecc711e42a1b,665353d08d37546e94979ca6,Sound B,1196,3,comprehension
3526,blue,37,,Sound B,Graduated College,pleasant,64771,1716739043391,1716738978620,female,English,conjunctive,59e4e5953e4b5a00016aa037,66535b99ac2eecc711e42a1b,665353d08d37546e94979ca6,Sound B,1175,4,comprehension
3526,blue,37,,Everyone,Graduated College,pleasant,64771,1716739043391,1716738978620,female,English,conjunctive,59e4e5953e4b5a00016aa037,66535b99ac2eecc711e42a1b,665353d08d37546e94979ca6,Followers of Religion 1,4995,1,comprehension-2
3526,blue,37,,FALSE,Graduated College,pleasant,64771,1716739043391,1716738978620,female,English,conjunctive,59e4e5953e4b5a00016aa037,66535b99ac2eecc711e42a1b,665353d08d37546e94979ca6,FALSE,4101,2,comprehension-2
3526,blue,37,,NA,Graduated College,pleasant,64771,1716739043391,1716738978620,female,English,conjunctive,59e4e5953e4b5a00016aa037,66535b99ac2eecc711e42a1b,665353d08d37546e94979ca6,5,11999,1,critical
3527,blue,23,,Sound A,Graduated College,neutral,158246,1716739081318,1716738923072,female,English ,conjunctive,613f4cc02c68dc6980c4c7c0,66535b58c1314d083f8e6e9e,665353d08d37546e94979ca6,Sound A,12479,1,comprehension
3527,blue,23,,Sound B,Graduated College,neutral,158246,1716739081318,1716738923072,female,English ,conjunctive,613f4cc02c68dc6980c4c7c0,66535b58c1314d083f8e6e9e,665353d08d37546e94979ca6,Sound B,2153,2,comprehension
3527,blue,23,,Sound B,Graduated College,neutral,158246,1716739081318,1716738923072,female,English ,conjunctive,613f4cc02c68dc6980c4c7c0,66535b58c1314d083f8e6e9e,665353d08d37546e94979ca6,Sound B,1501,3,comprehension
3527,blue,23,,Sound B,Graduated College,neutral,158246,1716739081318,1716738923072,female,English ,conjunctive,613f4cc02c68dc6980c4c7c0,66535b58c1314d083f8e6e9e,665353d08d37546e94979ca6,Sound B,1147,4,comprehension
3527,blue,23,,Everyone,Graduated College,neutral,158246,1716739081318,1716738923072,female,English ,conjunctive,613f4cc02c68dc6980c4c7c0,66535b58c1314d083f8e6e9e,665353d08d37546e94979ca6,Everyone,6939,1,comprehension-2
3527,blue,23,,FALSE,Graduated College,neutral,158246,1716739081318,1716738923072,female,English ,conjunctive,613f4cc02c68dc6980c4c7c0,66535b58c1314d083f8e6e9e,665353d08d37546e94979ca6,FALSE,4666,2,comprehension-2
3527,blue,23,,NA,Graduated College,neutral,158246,1716739081318,1716738923072,female,English ,conjunctive,613f4cc02c68dc6980c4c7c0,66535b58c1314d083f8e6e9e,665353d08d37546e94979ca6,7,35561,1,critical
3530,red,59,,Sound A,Graduated High-school,neutral,144973,1716739154577,1716739009604,female,english,conjunctive,64859322fdedddaf809ab880,66535bb6b9ac285852a837ba,665353d08d37546e94979ca6,Sound A,5512,1,comprehension
3530,red,59,,Sound B,Graduated High-school,neutral,144973,1716739154577,1716739009604,female,english,conjunctive,64859322fdedddaf809ab880,66535bb6b9ac285852a837ba,665353d08d37546e94979ca6,Sound B,1910,2,comprehension
3530,red,59,,Sound B,Graduated High-school,neutral,144973,1716739154577,1716739009604,female,english,conjunctive,64859322fdedddaf809ab880,66535bb6b9ac285852a837ba,665353d08d37546e94979ca6,Sound B,1477,3,comprehension
3530,red,59,,Sound B,Graduated High-school,neutral,144973,1716739154577,1716739009604,female,english,conjunctive,64859322fdedddaf809ab880,66535bb6b9ac285852a837ba,665353d08d37546e94979ca6,Sound B,1480,4,comprehension
3530,red,59,,Everyone,Graduated High-school,neutral,144973,1716739154577,1716739009604,female,english,conjunctive,64859322fdedddaf809ab880,66535bb6b9ac285852a837ba,665353d08d37546e94979ca6,Everyone,3687,1,comprehension-2
3530,red,59,,FALSE,Graduated High-school,neutral,144973,1716739154577,1716739009604,female,english,conjunctive,64859322fdedddaf809ab880,66535bb6b9ac285852a837ba,665353d08d37546e94979ca6,FALSE,2680,2,comprehension-2
3530,red,59,,NA,Graduated High-school,neutral,144973,1716739154577,1716739009604,female,english,conjunctive,64859322fdedddaf809ab880,66535bb6b9ac285852a837ba,665353d08d37546e94979ca6,7,26695,1,critical
3537,blue,72,,Sound A,Graduated College,unpleasant,200781,1716739239140,1716739038359,female,English,disjunctive,5d6fc9b0a676c8001aeec9c4,66535bd4b74eb6e13c4b66e6,665353d08d37546e94979ca6,Sound A,12200,1,comprehension
3537,blue,72,,Sound A,Graduated College,unpleasant,200781,1716739239140,1716739038359,female,English,disjunctive,5d6fc9b0a676c8001aeec9c4,66535bd4b74eb6e13c4b66e6,665353d08d37546e94979ca6,Sound A,2220,2,comprehension
3537,blue,72,,Sound A,Graduated College,unpleasant,200781,1716739239140,1716739038359,female,English,disjunctive,5d6fc9b0a676c8001aeec9c4,66535bd4b74eb6e13c4b66e6,665353d08d37546e94979ca6,Sound A,1657,3,comprehension
3537,blue,72,,Sound B,Graduated College,unpleasant,200781,1716739239140,1716739038359,female,English,disjunctive,5d6fc9b0a676c8001aeec9c4,66535bd4b74eb6e13c4b66e6,665353d08d37546e94979ca6,Sound B,1708,4,comprehension
3537,blue,72,,Everyone,Graduated College,unpleasant,200781,1716739239140,1716739038359,female,English,disjunctive,5d6fc9b0a676c8001aeec9c4,66535bd4b74eb6e13c4b66e6,665353d08d37546e94979ca6,Everyone,5290,1,comprehension-2
3537,blue,72,,FALSE,Graduated College,unpleasant,200781,1716739239140,1716739038359,female,English,disjunctive,5d6fc9b0a676c8001aeec9c4,66535bd4b74eb6e13c4b66e6,665353d08d37546e94979ca6,FALSE,3869,2,comprehension-2
3537,blue,72,,NA,Graduated College,unpleasant,200781,1716739239140,1716739038359,female,English,disjunctive,5d6fc9b0a676c8001aeec9c4,66535bd4b74eb6e13c4b66e6,665353d08d37546e94979ca6,7,47781,1,critical
3538,red,53,Interesting study,Sound A,Graduated High-school,neutral,319387,1716739252252,1716738932865,male,English,disjunctive,6266f2db800b9205ce65d05c,66535b6b167f32bf401384ef,665353d08d37546e94979ca6,Sound A,10610,1,comprehension
3538,red,53,Interesting study,Sound A,Graduated High-school,neutral,319387,1716739252252,1716738932865,male,English,disjunctive,6266f2db800b9205ce65d05c,66535b6b167f32bf401384ef,665353d08d37546e94979ca6,Sound A,3630,2,comprehension
3538,red,53,Interesting study,Sound A,Graduated High-school,neutral,319387,1716739252252,1716738932865,male,English,disjunctive,6266f2db800b9205ce65d05c,66535b6b167f32bf401384ef,665353d08d37546e94979ca6,Sound A,5823,3,comprehension
3538,red,53,Interesting study,Sound B,Graduated High-school,neutral,319387,1716739252252,1716738932865,male,English,disjunctive,6266f2db800b9205ce65d05c,66535b6b167f32bf401384ef,665353d08d37546e94979ca6,Sound B,2578,4,comprehension
3538,red,53,Interesting study,Everyone,Graduated High-school,neutral,319387,1716739252252,1716738932865,male,English,disjunctive,6266f2db800b9205ce65d05c,66535b6b167f32bf401384ef,665353d08d37546e94979ca6,Everyone,4152,1,comprehension-2
3538,red,53,Interesting study,FALSE,Graduated High-school,neutral,319387,1716739252252,1716738932865,male,English,disjunctive,6266f2db800b9205ce65d05c,66535b6b167f32bf401384ef,665353d08d37546e94979ca6,FALSE,5854,2,comprehension-2
3538,red,53,Interesting study,NA,Graduated High-school,neutral,319387,1716739252252,1716738932865,male,English,disjunctive,6266f2db800b9205ce65d05c,66535b6b167f32bf401384ef,665353d08d37546e94979ca6,6,80621,1,critical
3540,blue,34,,Sound A,Higher degree,pleasant,381815,1716739264468,1716738882653,male,English,conjunctive,5e90a4514885633c5d0f97c3,66535b3e94f39f872c584fb6,665353d08d37546e94979ca6,Sound A,11128,1,comprehension
3540,blue,34,,Sound B,Higher degree,pleasant,381815,1716739264468,1716738882653,male,English,conjunctive,5e90a4514885633c5d0f97c3,66535b3e94f39f872c584fb6,665353d08d37546e94979ca6,Sound B,7714,2,comprehension
3540,blue,34,,Sound B,Higher degree,pleasant,381815,1716739264468,1716738882653,male,English,conjunctive,5e90a4514885633c5d0f97c3,66535b3e94f39f872c584fb6,665353d08d37546e94979ca6,Sound B,1758,3,comprehension
3540,blue,34,,Sound B,Higher degree,pleasant,381815,1716739264468,1716738882653,male,English,conjunctive,5e90a4514885633c5d0f97c3,66535b3e94f39f872c584fb6,665353d08d37546e94979ca6,Sound B,4037,4,comprehension
3540,blue,34,,Everyone,Higher degree,pleasant,381815,1716739264468,1716738882653,male,English,conjunctive,5e90a4514885633c5d0f97c3,66535b3e94f39f872c584fb6,665353d08d37546e94979ca6,Everyone,5185,1,comprehension-2
3540,blue,34,,FALSE,Higher degree,pleasant,381815,1716739264468,1716738882653,male,English,conjunctive,5e90a4514885633c5d0f97c3,66535b3e94f39f872c584fb6,665353d08d37546e94979ca6,FALSE,3423,2,comprehension-2
3540,blue,34,,NA,Higher degree,pleasant,381815,1716739264468,1716738882653,male,English,conjunctive,5e90a4514885633c5d0f97c3,66535b3e94f39f872c584fb6,665353d08d37546e94979ca6,1,152083,1,critical
3543,blue,45,,Sound A,Graduated High-school,neutral,382020,1716739278495,1716738896475,female,english,conjunctive,6147a60755a1b957431d0b5c,66535b4b4d386b6218f50d34,665353d08d37546e94979ca6,Sound A,17317,1,comprehension
3543,blue,45,,Sound B,Graduated High-school,neutral,382020,1716739278495,1716738896475,female,english,conjunctive,6147a60755a1b957431d0b5c,66535b4b4d386b6218f50d34,665353d08d37546e94979ca6,Sound B,20595,2,comprehension
3543,blue,45,,Sound B,Graduated High-school,neutral,382020,1716739278495,1716738896475,female,english,conjunctive,6147a60755a1b957431d0b5c,66535b4b4d386b6218f50d34,665353d08d37546e94979ca6,Sound B,2889,3,comprehension
3543,blue,45,,Sound B,Graduated High-school,neutral,382020,1716739278495,1716738896475,female,english,conjunctive,6147a60755a1b957431d0b5c,66535b4b4d386b6218f50d34,665353d08d37546e94979ca6,Sound B,1710,4,comprehension
3543,blue,45,,Everyone,Graduated High-school,neutral,382020,1716739278495,1716738896475,female,english,conjunctive,6147a60755a1b957431d0b5c,66535b4b4d386b6218f50d34,665353d08d37546e94979ca6,Everyone,7134,1,comprehension-2
3543,blue,45,,FALSE,Graduated High-school,neutral,382020,1716739278495,1716738896475,female,english,conjunctive,6147a60755a1b957431d0b5c,66535b4b4d386b6218f50d34,665353d08d37546e94979ca6,FALSE,6272,2,comprehension-2
3543,blue,45,,NA,Graduated High-school,neutral,382020,1716739278495,1716738896475,female,english,conjunctive,6147a60755a1b957431d0b5c,66535b4b4d386b6218f50d34,665353d08d37546e94979ca6,4,72432,1,critical
3547,red,39,,Sound A,Graduated College,unpleasant,162001,1716739307080,1716739145079,female,English,disjunctive,5ff7320620d7133805a3cac7,66535c3778d4cf4381f2cea8,665353d08d37546e94979ca6,Sound A,9406,1,comprehension
3547,red,39,,Sound A,Graduated College,unpleasant,162001,1716739307080,1716739145079,female,English,disjunctive,5ff7320620d7133805a3cac7,66535c3778d4cf4381f2cea8,665353d08d37546e94979ca6,Sound A,9076,2,comprehension
3547,red,39,,Sound A,Graduated College,unpleasant,162001,1716739307080,1716739145079,female,English,disjunctive,5ff7320620d7133805a3cac7,66535c3778d4cf4381f2cea8,665353d08d37546e94979ca6,Sound A,1948,3,comprehension
3547,red,39,,Sound B,Graduated College,unpleasant,162001,1716739307080,1716739145079,female,English,disjunctive,5ff7320620d7133805a3cac7,66535c3778d4cf4381f2cea8,665353d08d37546e94979ca6,Sound B,3056,4,comprehension
3547,red,39,,Everyone,Graduated College,unpleasant,162001,1716739307080,1716739145079,female,English,disjunctive,5ff7320620d7133805a3cac7,66535c3778d4cf4381f2cea8,665353d08d37546e94979ca6,Everyone,3502,1,comprehension-2
3547,red,39,,FALSE,Graduated College,unpleasant,162001,1716739307080,1716739145079,female,English,disjunctive,5ff7320620d7133805a3cac7,66535c3778d4cf4381f2cea8,665353d08d37546e94979ca6,FALSE,2936,2,comprehension-2
3547,red,39,,NA,Graduated College,unpleasant,162001,1716739307080,1716739145079,female,English,disjunctive,5ff7320620d7133805a3cac7,66535c3778d4cf4381f2cea8,665353d08d37546e94979ca6,1,29302,1,critical
3531,red,50,,Sound A,Graduated College,neutral,165205,1716739180708,1716739015503,female,english,conjunctive,614b2ae5644dcd015db6fc7f,66535bb79704097838dc5c9f,665353d08d37546e94979ca6,Sound B,20612,1,comprehension
3531,red,50,,Sound B,Graduated College,neutral,165205,1716739180708,1716739015503,female,english,conjunctive,614b2ae5644dcd015db6fc7f,66535bb79704097838dc5c9f,665353d08d37546e94979ca6,Sound B,6969,2,comprehension
3531,red,50,,Sound B,Graduated College,neutral,165205,1716739180708,1716739015503,female,english,conjunctive,614b2ae5644dcd015db6fc7f,66535bb79704097838dc5c9f,665353d08d37546e94979ca6,Sound B,5396,3,comprehension
3531,red,50,,Sound B,Graduated College,neutral,165205,1716739180708,1716739015503,female,english,conjunctive,614b2ae5644dcd015db6fc7f,66535bb79704097838dc5c9f,665353d08d37546e94979ca6,Sound B,2608,4,comprehension
3531,red,50,,Everyone,Graduated College,neutral,165205,1716739180708,1716739015503,female,english,conjunctive,614b2ae5644dcd015db6fc7f,66535bb79704097838dc5c9f,665353d08d37546e94979ca6,Everyone,5285,1,comprehension-2
3531,red,50,,FALSE,Graduated College,neutral,165205,1716739180708,1716739015503,female,english,conjunctive,614b2ae5644dcd015db6fc7f,66535bb79704097838dc5c9f,665353d08d37546e94979ca6,FALSE,4253,2,comprehension-2
3531,red,50,,NA,Graduated College,neutral,165205,1716739180708,1716739015503,female,english,conjunctive,614b2ae5644dcd015db6fc7f,66535bb79704097838dc5c9f,665353d08d37546e94979ca6,5,37859,1,critical
3544,red,21,,Sound A,Higher degree,pleasant,204275,1716739289509,1716739085234,male,English,conjunctive,664c9e01a509b8b5a0e9ffd0,66535c05eb51065120dc2e2c,665353d08d37546e94979ca6,Sound A,12214,1,comprehension
3544,red,21,,Sound B,Higher degree,pleasant,204275,1716739289509,1716739085234,male,English,conjunctive,664c9e01a509b8b5a0e9ffd0,66535c05eb51065120dc2e2c,665353d08d37546e94979ca6,Sound B,1797,2,comprehension
3544,red,21,,Sound B,Higher degree,pleasant,204275,1716739289509,1716739085234,male,English,conjunctive,664c9e01a509b8b5a0e9ffd0,66535c05eb51065120dc2e2c,665353d08d37546e94979ca6,Sound B,1156,3,comprehension
3544,red,21,,Sound B,Higher degree,pleasant,204275,1716739289509,1716739085234,male,English,conjunctive,664c9e01a509b8b5a0e9ffd0,66535c05eb51065120dc2e2c,665353d08d37546e94979ca6,Sound B,1002,4,comprehension
3544,red,21,,Everyone,Higher degree,pleasant,204275,1716739289509,1716739085234,male,English,conjunctive,664c9e01a509b8b5a0e9ffd0,66535c05eb51065120dc2e2c,665353d08d37546e94979ca6,Everyone,4488,1,comprehension-2
3544,red,21,,FALSE,Higher degree,pleasant,204275,1716739289509,1716739085234,male,English,conjunctive,664c9e01a509b8b5a0e9ffd0,66535c05eb51065120dc2e2c,665353d08d37546e94979ca6,FALSE,4122,2,comprehension-2
3544,red,21,,NA,Higher degree,pleasant,204275,1716739289509,1716739085234,male,English,conjunctive,664c9e01a509b8b5a0e9ffd0,66535c05eb51065120dc2e2c,665353d08d37546e94979ca6,4,66511,1,critical
3545,red,51,,Sound A,Graduated High-school,pleasant,407881,1716739293598,1716738885717,female,English,disjunctive,6018880c76e9e614739fde32,66535b3beb51065120dc2dde,665353d08d37546e94979ca6,Sound A,13153,1,comprehension
3545,red,51,,Sound A,Graduated High-school,pleasant,407881,1716739293598,1716738885717,female,English,disjunctive,6018880c76e9e614739fde32,66535b3beb51065120dc2dde,665353d08d37546e94979ca6,Sound A,8299,2,comprehension
3545,red,51,,Sound A,Graduated High-school,pleasant,407881,1716739293598,1716738885717,female,English,disjunctive,6018880c76e9e614739fde32,66535b3beb51065120dc2dde,665353d08d37546e94979ca6,Sound A,2810,3,comprehension
3545,red,51,,Sound B,Graduated High-school,pleasant,407881,1716739293598,1716738885717,female,English,disjunctive,6018880c76e9e614739fde32,66535b3beb51065120dc2dde,665353d08d37546e94979ca6,Sound B,2899,4,comprehension
3545,red,51,,Everyone,Graduated High-school,pleasant,407881,1716739293598,1716738885717,female,English,disjunctive,6018880c76e9e614739fde32,66535b3beb51065120dc2dde,665353d08d37546e94979ca6,Everyone,4369,1,comprehension-2
3545,red,51,,FALSE,Graduated High-school,pleasant,407881,1716739293598,1716738885717,female,English,disjunctive,6018880c76e9e614739fde32,66535b3beb51065120dc2dde,665353d08d37546e94979ca6,FALSE,4794,2,comprehension-2
3545,red,51,,NA,Graduated High-school,pleasant,407881,1716739293598,1716738885717,female,English,disjunctive,6018880c76e9e614739fde32,66535b3beb51065120dc2dde,665353d08d37546e94979ca6,6,46259,1,critical
3554,blue,50,Thank you for allowing me to participate.,Sound A,Higher degree,neutral,400398,1716739368894,1716738968496,male,English,conjunctive,637f8e8b4aab8c4f8af7e09b,66535adbac2eecc711e429e0,665353d08d37546e94979ca6,Sound A,7880,1,comprehension
3554,blue,50,Thank you for allowing me to participate.,Sound B,Higher degree,neutral,400398,1716739368894,1716738968496,male,English,conjunctive,637f8e8b4aab8c4f8af7e09b,66535adbac2eecc711e429e0,665353d08d37546e94979ca6,Sound B,3639,2,comprehension
3554,blue,50,Thank you for allowing me to participate.,Sound B,Higher degree,neutral,400398,1716739368894,1716738968496,male,English,conjunctive,637f8e8b4aab8c4f8af7e09b,66535adbac2eecc711e429e0,665353d08d37546e94979ca6,Sound B,4029,3,comprehension
3554,blue,50,Thank you for allowing me to participate.,Sound B,Higher degree,neutral,400398,1716739368894,1716738968496,male,English,conjunctive,637f8e8b4aab8c4f8af7e09b,66535adbac2eecc711e429e0,665353d08d37546e94979ca6,Sound B,1753,4,comprehension
3554,blue,50,Thank you for allowing me to participate.,Everyone,Higher degree,neutral,400398,1716739368894,1716738968496,male,English,conjunctive,637f8e8b4aab8c4f8af7e09b,66535adbac2eecc711e429e0,665353d08d37546e94979ca6,Everyone,7490,1,comprehension-2
3554,blue,50,Thank you for allowing me to participate.,FALSE,Higher degree,neutral,400398,1716739368894,1716738968496,male,English,conjunctive,637f8e8b4aab8c4f8af7e09b,66535adbac2eecc711e429e0,665353d08d37546e94979ca6,FALSE,8230,2,comprehension-2
3554,blue,50,Thank you for allowing me to participate.,NA,Higher degree,neutral,400398,1716739368894,1716738968496,male,English,conjunctive,637f8e8b4aab8c4f8af7e09b,66535adbac2eecc711e429e0,665353d08d37546e94979ca6,6,99318,1,critical
3571,red,31,,Sound A,Higher degree,unpleasant,154597,1716739561202,1716739406605,female,English,conjunctive,5d45f94cd429cd00011f618f,66535d4810ca11939058df32,665353d08d37546e94979ca6,Sound A,1383,1,comprehension
3571,red,31,,Sound B,Higher degree,unpleasant,154597,1716739561202,1716739406605,female,English,conjunctive,5d45f94cd429cd00011f618f,66535d4810ca11939058df32,665353d08d37546e94979ca6,Sound B,6976,2,comprehension
3571,red,31,,Sound B,Higher degree,unpleasant,154597,1716739561202,1716739406605,female,English,conjunctive,5d45f94cd429cd00011f618f,66535d4810ca11939058df32,665353d08d37546e94979ca6,Sound B,1670,3,comprehension
3571,red,31,,Sound B,Higher degree,unpleasant,154597,1716739561202,1716739406605,female,English,conjunctive,5d45f94cd429cd00011f618f,66535d4810ca11939058df32,665353d08d37546e94979ca6,Sound B,897,4,comprehension
3571,red,31,,Everyone,Higher degree,unpleasant,154597,1716739561202,1716739406605,female,English,conjunctive,5d45f94cd429cd00011f618f,66535d4810ca11939058df32,665353d08d37546e94979ca6,Everyone,8401,1,comprehension-2
3571,red,31,,FALSE,Higher degree,unpleasant,154597,1716739561202,1716739406605,female,English,conjunctive,5d45f94cd429cd00011f618f,66535d4810ca11939058df32,665353d08d37546e94979ca6,FALSE,3488,2,comprehension-2
3571,red,31,,NA,Higher degree,unpleasant,154597,1716739561202,1716739406605,female,English,conjunctive,5d45f94cd429cd00011f618f,66535d4810ca11939058df32,665353d08d37546e94979ca6,1,32261,1,critical
3572,blue,71,,Sound A,Graduated High-school,unpleasant,223614,1716739567170,1716739343556,male,,conjunctive,5df2f7674f849e20d6666704,66535d062d6b4dd49cd7cbcd,665353d08d37546e94979ca6,Sound A,21851,1,comprehension
3572,blue,71,,Sound B,Graduated High-school,unpleasant,223614,1716739567170,1716739343556,male,,conjunctive,5df2f7674f849e20d6666704,66535d062d6b4dd49cd7cbcd,665353d08d37546e94979ca6,Sound B,7775,2,comprehension
3572,blue,71,,Sound B,Graduated High-school,unpleasant,223614,1716739567170,1716739343556,male,,conjunctive,5df2f7674f849e20d6666704,66535d062d6b4dd49cd7cbcd,665353d08d37546e94979ca6,Sound B,6328,3,comprehension
3572,blue,71,,Sound B,Graduated High-school,unpleasant,223614,1716739567170,1716739343556,male,,conjunctive,5df2f7674f849e20d6666704,66535d062d6b4dd49cd7cbcd,665353d08d37546e94979ca6,Sound B,2697,4,comprehension
3572,blue,71,,Everyone,Graduated High-school,unpleasant,223614,1716739567170,1716739343556,male,,conjunctive,5df2f7674f849e20d6666704,66535d062d6b4dd49cd7cbcd,665353d08d37546e94979ca6,Everyone,9865,1,comprehension-2
3572,blue,71,,FALSE,Graduated High-school,unpleasant,223614,1716739567170,1716739343556,male,,conjunctive,5df2f7674f849e20d6666704,66535d062d6b4dd49cd7cbcd,665353d08d37546e94979ca6,FALSE,4689,2,comprehension-2
3572,blue,71,,NA,Graduated High-school,unpleasant,223614,1716739567170,1716739343556,male,,conjunctive,5df2f7674f849e20d6666704,66535d062d6b4dd49cd7cbcd,665353d08d37546e94979ca6,7,51856,1,critical
3580,blue,21,,Sound A,Graduated High-school,unpleasant,169379,1716739653165,1716739483786,female,English,disjunctive,66323f9871df195cad99dba3,66535d7c5bd70f79cdf63a7e,665353d08d37546e94979ca6,Sound A,9978,1,comprehension
3580,blue,21,,Sound A,Graduated High-school,unpleasant,169379,1716739653165,1716739483786,female,English,disjunctive,66323f9871df195cad99dba3,66535d7c5bd70f79cdf63a7e,665353d08d37546e94979ca6,Sound A,3089,2,comprehension
3580,blue,21,,Sound A,Graduated High-school,unpleasant,169379,1716739653165,1716739483786,female,English,disjunctive,66323f9871df195cad99dba3,66535d7c5bd70f79cdf63a7e,665353d08d37546e94979ca6,Sound A,1725,3,comprehension
3580,blue,21,,Sound B,Graduated High-school,unpleasant,169379,1716739653165,1716739483786,female,English,disjunctive,66323f9871df195cad99dba3,66535d7c5bd70f79cdf63a7e,665353d08d37546e94979ca6,Sound B,1499,4,comprehension
3580,blue,21,,Everyone,Graduated High-school,unpleasant,169379,1716739653165,1716739483786,female,English,disjunctive,66323f9871df195cad99dba3,66535d7c5bd70f79cdf63a7e,665353d08d37546e94979ca6,Everyone,2999,1,comprehension-2
3580,blue,21,,FALSE,Graduated High-school,unpleasant,169379,1716739653165,1716739483786,female,English,disjunctive,66323f9871df195cad99dba3,66535d7c5bd70f79cdf63a7e,665353d08d37546e94979ca6,FALSE,2766,2,comprehension-2
3580,blue,21,,NA,Graduated High-school,unpleasant,169379,1716739653165,1716739483786,female,English,disjunctive,66323f9871df195cad99dba3,66535d7c5bd70f79cdf63a7e,665353d08d37546e94979ca6,7,33705,1,critical
3590,blue,49,,Sound A,Graduated College,unpleasant,182414,1716739714709,1716739532295,female,English,disjunctive,5b2c9b165b5c0900018b45ef,66535dc1b74eb6e13c4b677b,665353d08d37546e94979ca6,Sound A,10254,1,comprehension
3590,blue,49,,Sound A,Graduated College,unpleasant,182414,1716739714709,1716739532295,female,English,disjunctive,5b2c9b165b5c0900018b45ef,66535dc1b74eb6e13c4b677b,665353d08d37546e94979ca6,Sound A,2927,2,comprehension
3590,blue,49,,Sound A,Graduated College,unpleasant,182414,1716739714709,1716739532295,female,English,disjunctive,5b2c9b165b5c0900018b45ef,66535dc1b74eb6e13c4b677b,665353d08d37546e94979ca6,Sound A,1721,3,comprehension
3590,blue,49,,Sound B,Graduated College,unpleasant,182414,1716739714709,1716739532295,female,English,disjunctive,5b2c9b165b5c0900018b45ef,66535dc1b74eb6e13c4b677b,665353d08d37546e94979ca6,Sound B,1624,4,comprehension
3590,blue,49,,Everyone,Graduated College,unpleasant,182414,1716739714709,1716739532295,female,English,disjunctive,5b2c9b165b5c0900018b45ef,66535dc1b74eb6e13c4b677b,665353d08d37546e94979ca6,Everyone,3829,1,comprehension-2
3590,blue,49,,FALSE,Graduated College,unpleasant,182414,1716739714709,1716739532295,female,English,disjunctive,5b2c9b165b5c0900018b45ef,66535dc1b74eb6e13c4b677b,665353d08d37546e94979ca6,FALSE,2854,2,comprehension-2
3590,blue,49,,NA,Graduated College,unpleasant,182414,1716739714709,1716739532295,female,English,disjunctive,5b2c9b165b5c0900018b45ef,66535dc1b74eb6e13c4b677b,665353d08d37546e94979ca6,7,30605,1,critical
3593,blue,58,,Sound A,Graduated College,neutral,233854,1716739725318,1716739491464,female,english,disjunctive,5c654e1a1519ac0001666177,66535d994b88b6623e275415,665353d08d37546e94979ca6,Sound A,4824,1,comprehension
3593,blue,58,,Sound A,Graduated College,neutral,233854,1716739725318,1716739491464,female,english,disjunctive,5c654e1a1519ac0001666177,66535d994b88b6623e275415,665353d08d37546e94979ca6,Sound A,12491,2,comprehension
3593,blue,58,,Sound A,Graduated College,neutral,233854,1716739725318,1716739491464,female,english,disjunctive,5c654e1a1519ac0001666177,66535d994b88b6623e275415,665353d08d37546e94979ca6,Sound B,3431,3,comprehension
3593,blue,58,,Sound B,Graduated College,neutral,233854,1716739725318,1716739491464,female,english,disjunctive,5c654e1a1519ac0001666177,66535d994b88b6623e275415,665353d08d37546e94979ca6,Sound B,5144,4,comprehension
3593,blue,58,,Everyone,Graduated College,neutral,233854,1716739725318,1716739491464,female,english,disjunctive,5c654e1a1519ac0001666177,66535d994b88b6623e275415,665353d08d37546e94979ca6,Everyone,5317,1,comprehension-2
3593,blue,58,,FALSE,Graduated College,neutral,233854,1716739725318,1716739491464,female,english,disjunctive,5c654e1a1519ac0001666177,66535d994b88b6623e275415,665353d08d37546e94979ca6,FALSE,4011,2,comprehension-2
3593,blue,58,,NA,Graduated College,neutral,233854,1716739725318,1716739491464,female,english,disjunctive,5c654e1a1519ac0001666177,66535d994b88b6623e275415,665353d08d37546e94979ca6,5,81624,1,critical
3548,blue,,,Sound A,Graduated High-school,neutral,322824,1716739319366,1716738996542,male,English,disjunctive,60dfe9736907fdf7faf974c3,66535b6c97679f61ff2cbccb,665353d08d37546e94979ca6,Sound A,3816,1,comprehension
3548,blue,,,Sound A,Graduated High-school,neutral,322824,1716739319366,1716738996542,male,English,disjunctive,60dfe9736907fdf7faf974c3,66535b6c97679f61ff2cbccb,665353d08d37546e94979ca6,Sound A,1066,2,comprehension
3548,blue,,,Sound A,Graduated High-school,neutral,322824,1716739319366,1716738996542,male,English,disjunctive,60dfe9736907fdf7faf974c3,66535b6c97679f61ff2cbccb,665353d08d37546e94979ca6,Sound A,850,3,comprehension
3548,blue,,,Sound B,Graduated High-school,neutral,322824,1716739319366,1716738996542,male,English,disjunctive,60dfe9736907fdf7faf974c3,66535b6c97679f61ff2cbccb,665353d08d37546e94979ca6,Sound B,1499,4,comprehension
3548,blue,,,Everyone,Graduated High-school,neutral,322824,1716739319366,1716738996542,male,English,disjunctive,60dfe9736907fdf7faf974c3,66535b6c97679f61ff2cbccb,665353d08d37546e94979ca6,Everyone,11784,1,comprehension-2
3548,blue,,,FALSE,Graduated High-school,neutral,322824,1716739319366,1716738996542,male,English,disjunctive,60dfe9736907fdf7faf974c3,66535b6c97679f61ff2cbccb,665353d08d37546e94979ca6,FALSE,2600,2,comprehension-2
3548,blue,,,NA,Graduated High-school,neutral,322824,1716739319366,1716738996542,male,English,disjunctive,60dfe9736907fdf7faf974c3,66535b6c97679f61ff2cbccb,665353d08d37546e94979ca6,2,72949,1,critical
3549,red,43,,Sound A,Higher degree,unpleasant,132306,1716739328402,1716739196096,female,English,disjunctive,5a745be1000dab00018c02e2,66535c6c5bd70f79cdf63a2f,665353d08d37546e94979ca6,Sound A,1132,1,comprehension
3549,red,43,,Sound A,Higher degree,unpleasant,132306,1716739328402,1716739196096,female,English,disjunctive,5a745be1000dab00018c02e2,66535c6c5bd70f79cdf63a2f,665353d08d37546e94979ca6,Sound A,3725,2,comprehension
3549,red,43,,Sound A,Higher degree,unpleasant,132306,1716739328402,1716739196096,female,English,disjunctive,5a745be1000dab00018c02e2,66535c6c5bd70f79cdf63a2f,665353d08d37546e94979ca6,Sound A,1660,3,comprehension
3549,red,43,,Sound B,Higher degree,unpleasant,132306,1716739328402,1716739196096,female,English,disjunctive,5a745be1000dab00018c02e2,66535c6c5bd70f79cdf63a2f,665353d08d37546e94979ca6,Sound B,1261,4,comprehension
3549,red,43,,Everyone,Higher degree,unpleasant,132306,1716739328402,1716739196096,female,English,disjunctive,5a745be1000dab00018c02e2,66535c6c5bd70f79cdf63a2f,665353d08d37546e94979ca6,Everyone,2309,1,comprehension-2
3549,red,43,,FALSE,Higher degree,unpleasant,132306,1716739328402,1716739196096,female,English,disjunctive,5a745be1000dab00018c02e2,66535c6c5bd70f79cdf63a2f,665353d08d37546e94979ca6,FALSE,2786,2,comprehension-2
3549,red,43,,NA,Higher degree,unpleasant,132306,1716739328402,1716739196096,female,English,disjunctive,5a745be1000dab00018c02e2,66535c6c5bd70f79cdf63a2f,665353d08d37546e94979ca6,2,21367,1,critical
3560,blue,33,,Sound A,Graduated College,pleasant,180416,1716739423386,1716739242970,male,English and French,disjunctive,6644da5b8602ecd5fd6ee4e1,66535ca27552ca50146ef62a,665353d08d37546e94979ca6,Sound A,18466,1,comprehension
3560,blue,33,,Sound A,Graduated College,pleasant,180416,1716739423386,1716739242970,male,English and French,disjunctive,6644da5b8602ecd5fd6ee4e1,66535ca27552ca50146ef62a,665353d08d37546e94979ca6,Sound A,19444,2,comprehension
3560,blue,33,,Sound A,Graduated College,pleasant,180416,1716739423386,1716739242970,male,English and French,disjunctive,6644da5b8602ecd5fd6ee4e1,66535ca27552ca50146ef62a,665353d08d37546e94979ca6,Sound A,5244,3,comprehension
3560,blue,33,,Sound B,Graduated College,pleasant,180416,1716739423386,1716739242970,male,English and French,disjunctive,6644da5b8602ecd5fd6ee4e1,66535ca27552ca50146ef62a,665353d08d37546e94979ca6,Sound B,2713,4,comprehension
3560,blue,33,,Everyone,Graduated College,pleasant,180416,1716739423386,1716739242970,male,English and French,disjunctive,6644da5b8602ecd5fd6ee4e1,66535ca27552ca50146ef62a,665353d08d37546e94979ca6,Followers of Religion 1,13352,1,comprehension-2
3560,blue,33,,FALSE,Graduated College,pleasant,180416,1716739423386,1716739242970,male,English and French,disjunctive,6644da5b8602ecd5fd6ee4e1,66535ca27552ca50146ef62a,665353d08d37546e94979ca6,TRUE,6061,2,comprehension-2
3560,blue,33,,NA,Graduated College,pleasant,180416,1716739423386,1716739242970,male,English and French,disjunctive,6644da5b8602ecd5fd6ee4e1,66535ca27552ca50146ef62a,665353d08d37546e94979ca6,6,44386,1,critical
